Time [mS], AccX [mg],AccY [mg],AccZ [mg],GyroX [mdps],GyroY [mdps],GyroZ [mdps],MagX [mgauss],MagY [mgauss],MagZ [mgauss]
42196, 60, 979, 207, 1050, 3430, -3430, -382, 324, -222
42197, 65, 981, 212, 700, 6860, -4130, -372, 322, -229
42198, 85, 979, 224, 210, 11130, -6650, -370, 327, -232
42199, 63, 976, 200, 350, 13720, -7000, -382, 318, -220
42200, 65, 978, 208, 910, 13930, -8890, -378, 318, -226
42201, 70, 970, 209, 630, 14840, -9450, -370, 322, -223
42202, 46, 982, 207, -490, 13510, -11970, -372, 325, -223
42203, 39, 992, 213, -1540, 12320, -13090, -379, 321, -235
42204, 45, 984, 213, -2450, 13650, -14770, -370, 318, -228
42205, 70, 955, 202, -2380, 14420, -11760, -373, 304, -223
42206, 73, 971, 226, -2730, 15190, -1540, -366, 316, -231
42207, 56, 970, 208, -2940, 17640, -210, -366, 313, -220
42208, 47, 966, 198, -2170, 15260, 140, -366, 319, -222
42209, 39, 968, 201, -1330, 11340, 700, -363, 319, -238
42210, 34, 972, 201, -560, 7350, 770, -366, 310, -231
42211, 29, 976, 209, 490, -840, 980, -358, 321, -216
42212, 30, 976, 217, 770, -3500, 700, -370, 319, -228
42213, 34, 973, 216, 840, -4970, 1260, -367, 312, -220
42214, 46, 968, 222, 420, -5880, 3150, -373, 322, -234
42215, 47, 965, 210, -140, -11760, 10290, -370, 324, -219
42216, 86, 945, 211, 420, -14980, 16660, -367, 324, -226
42217, 85, 943, 205, 1470, -18060, 27580, -373, 319, -222
42218, 49, 980, 219, 2240, -20650, 31150, -369, 321, -222
42219, 27, 1005, 227, 1890, -23520, 24500, -375, 322, -226
42220, 45, 986, 238, -420, -17570, 6580, -376, 327, -220
42221, 61, 976, 236, 420, -20160, -280, -376, 321, -235
42222, 129, 975, 295, -980, -6440, 70, -385, 325, -217
42223, 127, 974, 285, -3150, 13860, 1820, -375, 324, -223
42224, 30, 973, 198, -3990, 19600, 2100, -373, 325, -225
42225, 73, 958, 198, -3290, -6020, 1540, -375, 322, -225
42226, 89, 968, 246, -1680, -1190, -490, -385, 322, -228
42227, 21, 964, 189, -1750, 4900, -630, -373, 315, -222
42228, 83, 967, 248, -280, -2380, -910, -378, 321, -223
42229, 44, 971, 221, -560, -1190, -420, -381, 328, -223
42230, 53, 970, 220, -700, -910, -280, -381, 322, -223
42231, 73, 970, 235, -560, -1260, -210, -375, 318, -222
42232, 74, 968, 227, -280, -1050, -70, -373, 313, -225
42233, 75, 970, 227, -280, 420, 210, -373, 325, -228
42234, 69, 971, 225, -70, 1190, 280, -369, 324, -217
42235, 74, 972, 231, -70, 770, 280, -379, 330, -226
42236, 61, 973, 223, -210, 910, 280, -387, 327, -217
42237, 67, 971, 229, -140, 490, 210, -375, 322, -232
42238, 63, 969, 222, -210, 210, 210, -372, 319, -223
42239, 71, 968, 221, -210, -140, 70, -375, 325, -231
42240, 79, 969, 224, -70, 140, 140, -382, 330, -226
42241, 75, 971, 222, -70, 280, 140, -385, 319, -226
42242, 74, 973, 223, -70, 700, 140, -385, 318, -229
42243, 67, 974, 220, -140, 700, 140, -376, 328, -222
42244, 65, 973, 220, -140, 490, 70, -378, 318, -222
42245, 66, 972, 219, -140, 350, 140, -385, 321, -219
42246, 66, 970, 220, -140, 140, 140, -376, 315, -226
42247, 67, 970, 220, -140, 210, 140, -376, 319, -225
42248, 72, 972, 220, -70, 350, 140, -370, 322, -226
42249, 72, 973, 219, -140, 280, 140, -381, 322, -223
42250, 74, 972, 220, -140, 280, 70, -373, 312, -220
42251, 70, 972, 217, -70, 420, 70, -382, 330, -222
42252, 75, 972, 219, -140, 420, -70, -375, 327, -234
42253, 75, 969, 220, -70, 490, -70, -379, 327, -226
42254, 71, 970, 218, 0, 420, -70, -367, 316, -226
42255, 71, 971, 219, 0, 630, -140, -375, 330, -223
42256, 70, 972, 218, 70, 560, -140, -372, 319, -222
42257, 70, 972, 219, 70, 420, -210, -375, 321, -225
42258, 70, 972, 219, 0, 490, -210, -381, 318, -226
42259, 70, 973, 217, 0, 420, -210, -376, 321, -219
42260, 71, 972, 218, 70, 490, -280, -375, 315, -223
42261, 71, 972, 218, 0, 420, -280, -370, 324, -219
42262, 73, 971, 218, 0, 350, -350, -372, 322, -228
42263, 74, 971, 217, 0, 490, -350, -373, 327, -220
42264, 75, 971, 218, 0, 420, -420, -378, 316, -228
42265, 77, 971, 217, 140, 420, -490, -378, 322, -228
42266, 79, 971, 219, 140, 420, -630, -372, 318, -231
42267, 78, 970, 218, 140, 560, -840, -372, 321, -222
42268, 79, 969, 218, 210, 630, -910, -376, 322, -231
42269, 78, 969, 218, 280, 560, -1050, -381, 322, -220
42270, 80, 969, 219, 280, 560, -1120, -372, 324, -229
42271, 81, 969, 221, 280, 560, -1400, -376, 322, -226
42272, 81, 970, 220, 350, 560, -1540, -369, 328, -225
42273, 83, 971, 220, 280, 560, -1750, -373, 319, -231
42274, 84, 971, 220, 350, 630, -1890, -381, 319, -220
42275, 83, 970, 220, 420, 700, -2030, -375, 325, -220
42276, 87, 968, 220, 490, 630, -2520, -375, 324, -231
42277, 91, 968, 222, 490, 560, -2800, -385, 322, -219
42278, 95, 967, 221, 560, 490, -3080, -372, 321, -225
42279, 99, 966, 221, 560, 560, -3500, -372, 325, -226
42280, 105, 965, 220, 630, 490, -3920, -382, 321, -225
42281, 113, 962, 222, 840, 630, -4900, -378, 324, -222
42282, 118, 961, 221, 910, 770, -5460, -366, 328, -217
42283, 118, 965, 216, 980, 840, -6020, -373, 321, -219
42284, 123, 960, 219, 1330, 490, -6720, -376, 312, -217
42285, 144, 955, 228, 1470, -350, -8120, -367, 318, -219
42286, 105, 960, 201, 1540, 2030, -8610, -364, 319, -225
42287, 151, 954, 235, 1750, 560, -9590, -369, 313, -231
42288, 108, 960, 202, 1890, 1610, -10290, -376, 318, -222
42289, 147, 955, 227, 2100, 1540, -11130, -369, 321, -219
42290, 135, 983, 205, 2310, 2310, -12670, -375, 309, -219
42291, -187, 1123, 81, 490, 9730, -10990, -367, 325, -222
42292, 359, 958, 265, 3570, -16870, -15750, -373, 324, -228
42293, -468, 968, -68, -2870, 34440, -8050, -367, 321, -226
42294, 786, 777, 612, 6300, -51380, -17920, -363, 318, -229
42295, 731, 867, 645, 10920, -69580, -21210, -369, 318, -229
42296, -601, 1068, -176, -3850, 82040, -5110, -369, 306, -228
42297, 426, 1076, 521, 11900, -69860, -21420, -369, 310, -222
42298, -697, 1287, -53, -5950, 84910, -1820, -367, 312, -225
42299, -505, 1068, 11, -9310, 63980, 3780, -373, 319, -229
42300, 76, 771, 285, 2380, -68040, -6720, -360, 315, -226
42301, -246, 761, 131, -8120, 47880, 8260, -364, 313, -217
42302, 94, 749, 305, 4480, -45010, -1680, -369, 306, -226
42303, -230, 890, 148, -770, 44520, 7840, -363, 303, -222
42304, -132, 1150, 172, 1050, 30030, 6510, -369, 312, -226
42305, 294, 1176, 457, 3500, -26110, 840, -369, 315, -214
42306, -171, 1122, 119, -3220, 8470, 4760, -361, 315, -228
42307, 218, 991, 431, -2100, -23660, 0, -364, 324, -222
42308, -157, 916, 121, -4830, -1330, -1190, -367, 313, -223
42309, -37, 845, 194, -2450, -1750, 280, -364, 316, -226
42310, 244, 859, 439, -630, -980, 770, -370, 316, -232
42311, -16, 932, 244, 910, 840, 1960, -369, 315, -223
42312, 130, 1009, 364, 1750, 8750, 3080, -372, 316, -234
42313, 15, 1023, 291, 1890, 14420, 3570, -369, 319, -240
42314, -80, 996, 227, 1120, 8120, 3220, -367, 321, -223
42315, -20, 987, 273, -700, 10150, 4060, -364, 313, -222
42316, -86, 974, 243, -1610, 2940, 4760, -373, 313, -217
42317, -73, 951, 277, -2380, 3990, 6160, -366, 318, -219
42318, -90, 952, 279, -1680, -140, 7700, -363, 322, -226
42319, -85, 974, 256, -1260, -3430, 8120, -367, 319, -223
42320, -14, 991, 276, -1400, -2730, 8960, -361, 316, -231
42321, -23, 992, 250, -1960, -5460, 9730, -361, 321, -231
42322, 9, 1005, 266, -2800, -4970, 11270, -364, 319, -219
42323, 8, 1006, 254, -3640, -490, 12250, -375, 321, -228
42324, 1, 976, 244, -3290, -1400, 12810, -379, 315, -226
42325, 4, 951, 261, -3220, 2380, 13930, -370, 312, -217
42326, -9, 937, 258, -2730, -70, 14560, -378, 324, -217
42327, -19, 941, 250, -2100, -1260, 15820, -375, 322, -223
42328, -7, 939, 254, -2240, -1120, 16100, -373, 327, -226
42329, 18, 952, 253, -2450, -3990, 15960, -379, 321, -229
42330, 52, 974, 264, -3080, -4060, 15960, -384, 322, -226
42331, 78, 999, 254, -3570, -5670, 15820, -382, 325, -226
42332, 116, 996, 258, -4200, -4970, 15820, -381, 325, -222
42333, 117, 970, 266, -4130, -2170, 15890, -378, 331, -220
42334, 110, 958, 264, -3570, -1820, 15750, -373, 333, -225
42335, 88, 942, 266, -3150, 1470, 15960, -382, 324, -228
42336, 82, 921, 264, -2170, 2730, 16170, -387, 331, -226
42337, 72, 936, 249, -1960, 1330, 16310, -387, 325, -225
42338, 52, 963, 242, -2170, 1260, 16590, -387, 330, -229
42339, 53, 983, 247, -2380, -630, 16590, -391, 322, -232
42340, 54, 988, 249, -2870, -1750, 16450, -381, 322, -229
42341, 108, 986, 249, -3710, -3920, 16030, -390, 331, -229
42342, 126, 974, 246, -3780, -4550, 15960, -394, 334, -231
42343, 119, 956, 241, -3850, -2870, 16100, -391, 333, -222
42344, 121, 942, 236, -3570, -2520, 16100, -385, 334, -237
42345, 110, 934, 227, -3360, 140, 16450, -388, 330, -235
42346, 90, 947, 219, -2520, 3710, 17570, -396, 325, -232
42347, 76, 957, 229, -2170, 4620, 18200, -396, 336, -232
42348, 51, 966, 226, -2030, 4480, 18690, -400, 334, -231
42349, 47, 972, 229, -2380, 2940, 18970, -393, 339, -220
42350, 52, 987, 224, -3570, -2870, 19040, -397, 337, -219
42351, 85, 982, 221, -4130, -4830, 18970, -391, 331, -226
42352, 126, 974, 228, -4550, -7070, 18620, -388, 345, -225
42353, 163, 974, 224, -4830, -7490, 18270, -396, 336, -235
42354, 213, 958, 239, -4830, -7770, 17780, -397, 331, -228
42355, 234, 919, 253, -4130, -5670, 16590, -403, 328, -228
42356, 228, 927, 239, -3430, -4550, 15820, -394, 336, -237
42357, 246, 935, 248, -2730, -3220, 15050, -405, 343, -216
42358, 241, 952, 235, -2240, -2380, 14280, -402, 339, -225
42359, 235, 954, 237, -2170, -1260, 13650, -403, 345, -223
42360, 206, 955, 226, -2450, -420, 12460, -400, 348, -225
42361, 199, 958, 224, -2520, -420, 11970, -406, 340, -219
42362, 196, 942, 230, -2660, -70, 11480, -414, 343, -229
42363, 188, 933, 230, -2520, -140, 11130, -414, 339, -231
42364, 187, 934, 229, -1890, 210, 10500, -411, 339, -240
42365, 193, 950, 221, -1540, 420, 10290, -400, 345, -228
42366, 189, 949, 213, -1400, 630, 10150, -408, 340, -234
42367, 187, 954, 208, -1330, 700, 9940, -415, 343, -220
42368, 178, 965, 204, -1470, 770, 9800, -409, 348, -226
42369, 173, 972, 207, -1610, 490, 9450, -406, 348, -213
42370, 174, 963, 212, -1750, 0, 9380, -406, 348, -228
42371, 168, 950, 211, -1750, -210, 9310, -418, 349, -226
42372, 173, 950, 210, -1680, -840, 9310, -414, 342, -229
42373, 169, 952, 206, -1540, -420, 9310, -415, 351, -226
42374, 177, 948, 212, -1470, -840, 9170, -414, 351, -234
42375, 194, 953, 220, -1470, -1260, 9030, -417, 352, -222
42376, 193, 961, 219, -1680, -1470, 8890, -412, 342, -232
42377, 206, 962, 221, -1750, -1540, 8610, -414, 349, -225
42378, 205, 944, 225, -1750, -1820, 7980, -406, 352, -232
42379, 220, 946, 225, -1610, -2240, 7630, -415, 351, -229
42380, 227, 957, 225, -1540, -2100, 7280, -411, 355, -229
42381, 227, 955, 225, -1260, -1960, 6790, -418, 357, -225
42382, 228, 944, 224, -1190, -2100, 6370, -427, 345, -229
42383, 233, 939, 213, -1260, -2660, 5390, -420, 354, -223
42384, 229, 942, 208, -1190, -2730, 4970, -424, 354, -235
42385, 233, 944, 211, -1120, -2940, 4340, -423, 355, -228
42386, 235, 948, 213, -1120, -3290, 3780, -412, 354, -226
42387, 250, 956, 217, -1120, -3430, 3150, -409, 349, -223
42388, 263, 956, 217, -1120, -3430, 1890, -430, 345, -229
42389, 262, 940, 212, -1050, -3290, 1330, -421, 352, -229
42390, 263, 929, 212, -840, -2730, 560, -415, 346, -232
42391, 270, 928, 213, -630, -2240, -70, -418, 349, -222
42392, 272, 934, 212, 280, -840, -1400, -432, 361, -231
42393, 274, 937, 216, 630, -420, -2170, -415, 355, -216
42394, 271, 946, 215, 700, 280, -2940, -412, 355, -225
42395, 275, 951, 219, 770, 560, -3710, -418, 358, -223
42396, 267, 956, 215, 840, 980, -4340, -415, 351, -222
42397, 243, 943, 219, 770, 1470, -5600, -423, 357, -216
42398, 233, 938, 222, 840, 1820, -6020, -415, 348, -232
42399, 226, 939, 224, 1050, 1820, -6510, -423, 358, -226
42400, 214, 939, 226, 1260, 2030, -6720, -414, 352, -240
42401, 201, 942, 226, 1610, 2310, -6930, -421, 351, -226
42402, 177, 957, 225, 1680, 2590, -7000, -414, 345, -226
42403, 173, 963, 228, 1680, 2520, -6860, -423, 351, -220
42404, 158, 965, 225, 1540, 2590, -6580, -423, 345, -228
42405, 151, 961, 231, 1260, 2660, -6300, -418, 348, -228
42406, 129, 967, 233, 1050, 3080, -5250, -409, 339, -231
42407, 122, 971, 238, 840, 2730, -4690, -408, 354, -219
42408, 113, 970, 242, 630, 2590, -4060, -408, 354, -222
42409, 106, 965, 246, 490, 1400, -3570, -409, 345, -238
42410, 104, 962, 247, 280, 560, -3010, -415, 351, -234
42411, 133, 968, 239, 490, 70, -1820, -415, 352, -214
42412, 152, 955, 240, 630, 910, -1260, -414, 346, -234
42413, 160, 939, 236, 630, 910, -910, -412, 349, -220
42414, 170, 936, 238, 630, 1820, -630, -415, 354, -225
42415, 185, 948, 238, 630, 1680, -700, -417, 345, -217
42416, 189, 965, 239, 280, 1750, -840, -417, 354, -220
42417, 186, 968, 237, 140, 1680, -910, -409, 355, -214
42418, 188, 971, 236, -70, 1610, -980, -409, 349, -229
42419, 184, 964, 233, 0, 1610, -1050, -402, 342, -213
42420, 177, 931, 231, 350, 1540, -1260, -412, 355, -232
42421, 174, 933, 226, 420, 1120, -1400, -414, 348, -226
42422, 172, 944, 222, 490, 1260, -1400, -412, 348, -228
42423, 174, 955, 221, 560, 910, -1470, -411, 345, -222
42424, 173, 964, 220, 420, 980, -1400, -414, 346, -231
42425, 178, 975, 223, 210, 980, -1330, -411, 348, -222
42426, 178, 972, 222, 70, 1260, -1260, -417, 355, -226
42427, 174, 960, 221, 140, 1400, -1260, -409, 348, -228
42428, 171, 947, 222, 70, 1540, -1190, -418, 345, -223
42429, 169, 943, 224, 280, 1470, -1190, -412, 346, -225
42430, 167, 951, 222, 420, 1470, -1050, -414, 346, -232
42431, 168, 957, 222, 490, 1190, -1120, -411, 343, -226
42432, 170, 964, 219, 490, 1120, -1050, -406, 351, -219
42433, 175, 969, 218, 350, 770, -1050, -408, 342, -220
42434, 175, 965, 217, 210, 770, -1050, -414, 348, -213
42435, 172, 958, 214, 140, 980, -1050, -418, 346, -220
42436, 173, 954, 214, 210, 1120, -1050, -417, 355, -229
42437, 172, 953, 213, 280, 1120, -910, -403, 352, -219
42438, 170, 955, 214, 420, 1120, -910, -414, 348, -225
42439, 168, 962, 215, 490, 910, -840, -405, 360, -222
42440, 170, 967, 214, 420, 770, -980, -415, 351, -225
42441, 173, 966, 215, 280, 560, -980, -418, 346, -220
42442, 173, 963, 215, 140, 560, -980, -412, 348, -223
42443, 172, 959, 216, 70, 700, -910, -412, 342, -228
42444, 172, 956, 217, 140, 770, -910, -411, 354, -225
42445, 170, 955, 218, 280, 840, -840, -408, 340, -219
42446, 168, 957, 219, 280, 700, -840, -424, 352, -213
42447, 167, 959, 218, 210, 630, -840, -412, 343, -228
42448, 170, 962, 218, 280, 350, -840, -406, 352, -232
42449, 160, 1017, 236, 140, -70, -980, -408, 345, -223
42450, -121, 1001, 136, -2240, -1610, 630, -409, 352, -220
42451, 427, 880, 360, -630, -16800, -1750, -417, 349, -220
42452, -140, 967, -3, -1540, 7840, 910, -420, 351, -217
42453, -118, 972, -25, -140, 9380, 1400, -409, 343, -222
42454, 564, 932, 497, 1190, -560, 210, -415, 351, -220
42455, -163, 1006, -25, 350, 6160, 1750, -408, 348, -214
42456, 444, 976, 442, 770, 4760, 770, -411, 342, -225
42457, -141, 997, 4, 350, 5810, 280, -406, 351, -220
42458, -64, 951, 57, 140, -2730, 70, -406, 351, -226
42459, 361, 933, 368, -770, 1820, 350, -409, 357, -225
42460, -2, 971, 88, -350, -6650, 140, -412, 345, -219
42461, 327, 941, 333, -420, 2940, 630, -414, 351, -226
42462, 320, 940, 313, 700, 9800, 1330, -420, 345, -219
42463, 101, 953, 135, 1610, 3710, 1400, -417, 354, -220
42464, 391, 905, 289, 1960, 15260, 2450, -417, 343, -229
42465, 188, 957, 172, 3500, 18480, 3360, -417, 348, -211
42466, 215, 995, 278, 3500, 28070, 4480, -421, 346, -217
42467, 35, 961, 298, 1750, 11130, 1890, -412, 351, -216
42468, -23, 969, 219, -70, -10570, -1610, -420, 348, -217
42469, 229, 954, 290, -2520, -20440, -4620, -421, 351, -214
42470, 199, 897, 226, -4340, -32620, -7700, -423, 340, -225
42471, 367, 842, 333, -6720, -54810, -16730, -417, 346, -219
42472, 518, 897, 341, -7630, -49560, -19600, -415, 343, -223
42473, 486, 922, 313, -6650, -57050, -22960, -406, 351, -226
42474, 398, 926, 321, -6860, -47670, -24500, -414, 343, -234
42475, 333, 926, 317, -6160, -54880, -27300, -408, 348, -235
42476, 251, 910, 301, -6510, -54530, -30870, -408, 342, -244
42477, 170, 904, 282, -7210, -50190, -31500, -409, 345, -234
42478, 166, 909, 308, -7560, -55370, -32410, -411, 340, -244
42479, 108, 932, 283, -8470, -55790, -32620, -415, 340, -246
42480, 153, 956, 315, -8680, -57540, -32900, -406, 340, -240
42481, 228, 943, 321, -8330, -53620, -33040, -400, 340, -253
42482, 239, 924, 320, -7560, -48230, -32620, -411, 340, -261
42483, 233, 916, 327, -6860, -42490, -32130, -411, 337, -261
42484, 203, 920, 324, -6300, -39480, -31780, -409, 339, -258
42485, 164, 931, 322, -6230, -35140, -31360, -403, 327, -258
42486, 87, 954, 326, -6510, -35350, -31500, -409, 340, -264
42487, 78, 954, 329, -7000, -35840, -31640, -393, 331, -270
42488, 70, 952, 336, -7560, -36400, -31500, -399, 327, -265
42489, 52, 947, 336, -8120, -39690, -31500, -405, 328, -273
42490, 46, 924, 344, -9030, -42490, -31430, -399, 330, -274
42491, 29, 927, 347, -9170, -45290, -31220, -405, 330, -276
42492, -43, 964, 348, -10010, -44380, -30800, -402, 324, -288
42493, -71, 983, 351, -10640, -53900, -30940, -411, 328, -297
42494, -149, 986, 341, -12880, -57120, -30590, -402, 321, -295
42495, -97, 957, 327, -16450, -77210, -31220, -397, 321, -288
42496, 226, 945, 401, -15890, -74900, -30450, -408, 321, -303
42497, 198, 952, 333, -14000, -55440, -28000, -400, 316, -295
42498, 300, 909, 405, -11340, -41020, -26180, -396, 318, -304
42499, 174, 834, 422, -6650, -20510, -22890, -405, 318, -304
42500, 86, 885, 388, -4550, -13510, -21420, -397, 312, -303
42501, 140, 940, 415, -2450, -6020, -20300, -402, 310, -295
42502, 78, 952, 384, -560, 2520, -19180, -408, 312, -306
42503, 80, 927, 418, 560, 10220, -17920, -403, 319, -301
42504, 62, 951, 384, 1470, 17080, -15260, -393, 316, -309
42505, 95, 956, 399, 2660, 20930, -13790, -390, 318, -295
42506, 51, 932, 378, 4130, 29820, -11760, -391, 315, -309
42507, 51, 895, 406, 6020, 37240, -10150, -391, 315, -297
42508, 14, 873, 396, 7770, 42280, -8820, -384, 315, -291
42509, 61, 946, 381, 10570, 48720, -6650, -381, 309, -292
42510, 61, 954, 369, 11200, 51240, -5460, -385, 307, -286
42511, 25, 952, 384, 11130, 52710, -4620, -384, 310, -291
42512, -53, 974, 355, 10220, 47530, -4550, -381, 313, -285
42513, -48, 1006, 344, 7490, 36890, -4690, -384, 316, -273
42514, -25, 985, 348, 6650, 39550, -3780, -384, 312, -286
42515, 17, 929, 372, 6930, 36960, -3570, -388, 318, -271
42516, -31, 910, 353, 6650, 36260, -3080, -387, 307, -279
42517, -44, 929, 370, 6090, 31710, -2940, -376, 319, -276
42518, -105, 1000, 336, 3220, 14630, -4130, -376, 310, -277
42519, -36, 989, 357, 1540, 5670, -5600, -382, 309, -279
42520, -1, 978, 338, 0, 1190, -6790, -373, 307, -274
42521, 47, 951, 345, -1120, -1890, -7560, -382, 303, -267
42522, 97, 944, 347, -1680, -3360, -7840, -385, 306, -274
42523, 105, 910, 350, -630, 4060, -7070, -372, 301, -285
42524, 15, 876, 354, 560, 8330, -6440, -373, 301, -271
42525, -26, 891, 347, 1750, 11060, -5600, -379, 303, -270
42526, -44, 917, 341, 3080, 12460, -4690, -382, 307, -271
42527, -17, 953, 344, 5320, 19460, -2380, -379, 307, -265
42528, -21, 993, 329, 5460, 21490, -980, -372, 301, -267
42529, -61, 1006, 325, 4970, 21980, 280, -373, 310, -261
42530, -79, 992, 329, 4130, 19390, 1120, -367, 298, -271
42531, -115, 981, 298, 3290, 17710, 1890, -375, 310, -259
42532, -113, 963, 313, 1540, 11130, 2660, -367, 304, -268
42533, -68, 968, 324, 560, 6930, 2940, -375, 306, -261
42534, -73, 996, 311, -420, 3010, 3290, -384, 309, -268
42535, -72, 974, 325, -1260, 0, 3710, -375, 306, -265
42536, -83, 952, 337, -1890, -4060, 3920, -378, 304, -270
42537, -47, 967, 326, -2170, -8190, 4480, -375, 300, -270
42538, -28, 949, 342, -1750, -6510, 5110, -370, 300, -268
42539, 19, 930, 347, -770, -5810, 5740, -378, 300, -264
42540, 34, 929, 328, 140, -1680, 6650, -373, 304, -262
42541, 26, 943, 325, 2030, 4760, 8050, -378, 295, -268
42542, 9, 943, 311, 2380, 4410, 8190, -367, 306, -265
42543, -47, 935, 287, 1470, 5460, 8400, -378, 298, -262
42544, -46, 947, 291, -70, 560, 8050, -379, 304, -256
42545, -81, 927, 311, -2310, -3430, 7700, -381, 304, -264
42546, 51, 1011, 368, -3850, -12810, 6580, -381, 313, -262
42547, 149, 1032, 374, -2240, -9590, 6510, -384, 309, -261
42548, 188, 994, 348, 350, -3360, 6790, -381, 295, -262
42549, 122, 895, 346, 2380, 3990, 7070, -376, 295, -264
42550, 72, 860, 340, 3220, 2870, 6440, -381, 304, -271
42551, 8, 921, 287, 1330, -1820, 4970, -385, 301, -261
42552, 0, 919, 298, -280, -6300, 3920, -376, 304, -264
42553, -14, 943, 296, -2170, -10780, 2940, -379, 303, -271
42554, 33, 945, 340, -3570, -13860, 2100, -376, 313, -265
42555, 159, 1103, 348, -3080, -10990, 1470, -373, 313, -264
42556, 151, 1014, 379, -1540, -7630, 1190, -385, 306, -268
42557, 75, 920, 326, -700, -3990, 1120, -382, 304, -268
42558, 72, 922, 338, -350, -6160, 630, -384, 304, -261
42559, -24, 891, 296, -1120, -4620, 350, -379, 297, -274
42560, -41, 823, 321, -2450, -12810, -1050, -378, 312, -274
42561, 11, 854, 330, -3080, -15820, -1400, -387, 306, -262
42562, 55, 903, 338, -2800, -16310, -1470, -385, 309, -273
42563, 79, 986, 342, -1960, -14420, -1400, -390, 307, -270
42564, 64, 1025, 361, -1330, -11900, -1610, -396, 309, -276
42565, -9, 961, 354, -1750, -13230, -1890, -378, 306, -271
42566, 11, 980, 338, -2240, -15890, -2450, -379, 297, -273
42567, 44, 984, 326, -2450, -16170, -2660, -384, 300, -273
42568, 31, 957, 312, -2660, -13160, -2310, -387, 297, -277
42569, -11, 906, 320, -3430, -15540, -2590, -387, 310, -268
42570, 11, 958, 325, -4130, -15470, -2520, -384, 313, -274
42571, 71, 996, 345, -3780, -15960, -2660, -391, 310, -282
42572, 31, 993, 305, -3640, -12390, -2450, -379, 303, -279
42573, 70, 976, 359, -3570, -9590, -2590, -379, 310, -286
42574, 83, 963, 318, -3570, -7490, -2870, -388, 297, -282
42575, 128, 948, 350, -2380, -8470, -2940, -384, 306, -274
42576, 97, 912, 333, -1120, 840, -2240, -384, 303, -286
42577, 163, 870, 347, 1120, 2310, -2380, -384, 301, -277
42578, 102, 861, 309, 4550, 13720, -2100, -394, 310, -285
42579, 148, 867, 293, 5810, 17990, -1750, -382, 309, -277
42580, 138, 865, 296, 6090, 23940, -1330, -384, 300, -280
42581, 107, 943, 289, 5950, 21140, -1960, -394, 312, -277
42582, 70, 990, 287, 4480, 21420, -2380, -394, 309, -276
42583, 151, 1147, 305, 2660, 17220, -3780, -373, 303, -274
42584, 167, 1146, 285, 2100, 20370, -3850, -381, 303, -271
42585, 193, 1058, 312, 2030, 22680, -4130, -384, 318, -279
42586, 139, 965, 288, 1820, 23380, -4410, -381, 313, -270
42587, 159, 923, 281, 1680, 26040, -4760, -379, 306, -271
42588, 147, 799, 254, 3360, 32900, -5110, -382, 303, -277
42589, 167, 781, 269, 5040, 34440, -5460, -378, 312, -271
42590, 169, 808, 269, 6510, 39900, -5390, -388, 315, -264
42591, 224, 895, 292, 8120, 41300, -5670, -382, 312, -268
42592, 197, 966, 272, 9590, 47600, -5740, -376, 306, -264
42593, 115, 1013, 269, 9520, 46620, -6300, -382, 312, -255
42594, 80, 1053, 277, 8610, 42770, -7210, -378, 309, -250
42595, 43, 1059, 244, 6790, 38290, -8120, -373, 316, -253
42596, 69, 1028, 237, 5110, 32060, -9170, -373, 313, -252
42597, 42, 892, 250, 1890, 24290, -10920, -385, 309, -255
42598, 47, 883, 241, 1190, 19180, -11620, -376, 307, -247
42599, 45, 862, 272, 770, 21700, -11620, -370, 316, -240
42600, 75, 874, 285, 2100, 18900, -12110, -372, 303, -243
42601, 95, 909, 297, 4060, 24010, -11760, -369, 306, -241
42602, 131, 1005, 274, 9170, 35280, -10710, -370, 306, -244
42603, 88, 977, 267, 10430, 39410, -10290, -372, 303, -234
42604, 30, 979, 251, 10010, 38710, -10220, -363, 300, -234
42605, -5, 995, 210, 8120, 36540, -10290, -363, 309, -234
42606, -4, 981, 226, 3500, 29540, -10570, -370, 300, -235
42607, -7, 985, 256, 2450, 25900, -10780, -363, 307, -226
42608, 0, 1013, 252, 2170, 25760, -10430, -369, 298, -234
42609, 84, 1071, 305, 3220, 26950, -10080, -361, 310, -226
42610, 80, 1076, 270, 5110, 32270, -9310, -370, 300, -232
42611, 3, 999, 251, 8260, 41440, -7980, -357, 306, -220
42612, -50, 946, 226, 7560, 39060, -7840, -355, 298, -222
42613, -84, 983, 184, 5530, 32060, -8120, -352, 303, -220
42614, -99, 1014, 170, 2310, 26180, -8190, -360, 306, -228
42615, -113, 981, 197, -840, 17920, -8680, -361, 292, -223
42616, -106, 944, 262, -5390, 3220, -9940, -351, 295, -220
42617, -23, 986, 261, -4690, 910, -10010, -360, 298, -223
42618, 30, 942, 279, -2240, 8190, -9100, -354, 297, -219
42619, -13, 863, 267, 840, 15820, -8190, -343, 289, -223
42620, -47, 854, 255, 3220, 17500, -7420, -357, 292, -216
42621, -93, 967, 221, 2520, 13230, -7420, -348, 292, -222
42622, -96, 1023, 212, 1540, 10290, -7000, -351, 288, -217
42623, -126, 1020, 227, 140, 8190, -7000, -351, 297, -216
42624, -163, 1041, 237, -1680, 2730, -7350, -354, 283, -220
42625, -131, 1060, 242, -5180, -8050, -7840, -355, 298, -217
42626, -129, 1041, 265, -5740, -8610, -7560, -339, 289, -216
42627, -97, 974, 270, -4970, -10150, -7280, -348, 298, -220
42628, -128, 899, 263, -3780, -6160, -6650, -352, 295, -229
42629, -139, 821, 266, -2310, -4830, -6090, -349, 289, -228
42630, -95, 733, 281, 1470, 420, -4620, -351, 300, -226
42631, -5, 846, 230, 4270, 1610, -3850, -349, 294, -225
42632, -66, 891, 179, 5320, 11620, -1960, -352, 292, -223
42633, -91, 1026, 265, 4830, 11830, -1470, -349, 292, -225
42634, -142, 1237, 271, -1610, 3220, -1260, -348, 297, -223
42635, -127, 1262, 265, -3150, -6370, -1680, -354, 292, -211
42636, -92, 1182, 211, -4550, -140, -490, -351, 298, -235
42637, -87, 990, 243, -4340, 770, 490, -351, 289, -229
42638, -40, 870, 306, -3990, 4200, 1190, -352, 295, -229
42639, -33, 642, 286, -910, 12740, 3360, -346, 295, -232
42640, -79, 747, 196, 2240, 12460, 4410, -357, 285, -232
42641, 29, 907, 270, 4410, 24010, 6370, -351, 289, -220
42642, -69, 1066, 257, 6160, 24150, 7280, -351, 292, -223
42643, -41, 1175, 280, 5810, 25550, 7980, -352, 300, -231
42644, -120, 1170, 259, 1470, 16730, 7770, -358, 294, -225
42645, -131, 1059, 198, -770, 7560, 7490, -351, 298, -223
42646, -133, 950, 203, -2940, 7770, 7770, -355, 301, -216
42647, -132, 884, 201, -3710, 1470, 7700, -346, 306, -222
42648, -126, 862, 229, -4550, 560, 8470, -351, 304, -229
42649, -30, 926, 309, -3990, 630, 8680, -357, 304, -231
42650, -17, 1022, 263, -1750, 350, 9030, -355, 303, -219
42651, 11, 1024, 301, 980, 11900, 10150, -352, 310, -222
42652, 13, 979, 267, 4340, 11340, 10500, -357, 310, -220
42653, -121, 914, 205, 4690, 12950, 11200, -357, 306, -225
42654, -93, 961, 191, 2100, 7420, 10920, -358, 309, -220
42655, -171, 1057, 150, -1190, 700, 10640, -358, 310, -220
42656, -120, 1059, 219, -4550, -5180, 10150, -357, 315, -213
42657, -157, 1065, 209, -7140, -11620, 9590, -354, 313, -213
42658, -21, 1008, 262, -7980, -13650, 9660, -352, 301, -214
42659, -20, 894, 268, -6300, -5180, 10710, -370, 304, -214
42660, -38, 749, 298, -3360, -700, 11410, -370, 312, -214
42661, -4, 720, 316, 140, 3780, 12250, -370, 306, -219
42662, 41, 929, 232, 6930, 16730, 14770, -369, 309, -210
42663, -17, 987, 245, 7840, 21140, 15680, -369, 309, -207
42664, -145, 1020, 240, 5950, 15750, 15540, -358, 310, -220
42665, -153, 1093, 250, 1890, 4550, 14840, -366, 304, -220
42666, -146, 1184, 216, -2380, -5810, 14000, -357, 303, -213
42667, -116, 1001, 255, -7490, -12950, 13790, -361, 306, -199
42668, -122, 893, 276, -8050, -15540, 13580, -369, 315, -211
42669, -17, 905, 287, -7210, -15680, 13860, -361, 304, -208
42670, 42, 926, 289, -4970, -9730, 14840, -373, 318, -211
42671, 61, 927, 289, -1820, -1260, 16170, -373, 309, -216
42672, -5, 947, 259, 3150, 11200, 17920, -366, 319, -211
42673, 47, 968, 297, 3850, 13020, 18620, -381, 309, -213
42674, 23, 1010, 246, 4060, 11970, 18970, -364, 303, -214
42675, 0, 1006, 231, 3640, 13930, 19600, -370, 318, -213
42676, -47, 997, 226, 1540, 9170, 19600, -373, 313, -201
42677, -10, 1017, 237, -70, 5180, 19530, -373, 304, -211
42678, -17, 1016, 240, -1470, 1680, 19320, -376, 316, -210
42679, -12, 988, 239, -2240, 560, 19390, -384, 318, -214
42680, 37, 994, 246, -1890, 700, 19390, -375, 315, -211
42681, 25, 951, 231, -1680, 4830, 20020, -373, 315, -216
42682, -7, 956, 240, -2170, -700, 19460, -373, 310, -211
42683, -71, 987, 203, -3920, -3010, 19110, -379, 318, -213
42684, 5, 1019, 259, -5040, -9310, 18270, -388, 312, -213
42685, -4, 1036, 196, -5740, -11900, 17570, -390, 319, -213
42686, 20, 930, 248, -5110, -14140, 17010, -385, 316, -214
42687, 24, 885, 230, -4480, -14350, 16800, -385, 328, -213
42688, 27, 853, 222, -3780, -13860, 16310, -385, 313, -220
42689, 26, 840, 200, -2940, -14420, 15820, -384, 327, -211
42690, 9, 939, 185, -4060, -15190, 14980, -396, 319, -216
42691, -52, 952, 215, -6650, -18760, 14420, -388, 316, -213
42692, -22, 1051, 273, -8610, -26740, 13020, -387, 321, -235
42693, 72, 1211, 235, -9310, -32480, 11970, -391, 322, -214
42694, 162, 1220, 241, -8610, -27860, 11760, -393, 316, -232
42695, 0, 776, 206, -6720, -22680, 10220, -387, 330, -223
42696, 52, 759, 292, -5880, -23520, 8890, -399, 315, -235
42697, 230, 905, 180, -3220, -28980, 7980, -391, 325, -229
42698, 254, 868, 162, -1050, -7980, 9380, -396, 325, -238
42699, 113, 693, 194, 70, -4060, 7840, -403, 333, -225
42700, 112, 958, 269, -770, -15470, 6020, -399, 328, -234
42701, 272, 1279, 184, -350, -14000, 6020, -405, 325, -231
42702, 325, 1275, 236, 910, -420, 7070, -409, 331, -241
42703, 153, 1087, 273, 1470, 6440, 6790, -402, 333, -228
42704, 48, 986, 252, -2660, -5950, 4130, -399, 324, -229
42705, 177, 1033, 173, -2870, -11060, 3360, -396, 327, -232
42706, 159, 910, 169, -1960, -280, 4130, -403, 343, -229
42707, 83, 726, 228, -560, 3010, 3920, -402, 331, -231
42708, 27, 704, 240, -350, 210, 3150, -406, 342, -235
42709, 203, 1119, 216, 490, -4130, 2520, -408, 337, -228
42710, 189, 1169, 241, 1470, 2590, 3010, -399, 331, -220
42711, 81, 1058, 253, 1330, 4130, 2660, -405, 333, -229
42712, -13, 991, 233, -420, -1120, 1750, -396, 345, -231
42713, 6, 942, 235, -4270, -15400, -70, -399, 337, -225
42714, 115, 950, 228, -3920, -13510, -210, -403, 334, -237
42715, 128, 947, 236, -2030, -10290, -350, -408, 339, -235
42716, 173, 972, 236, -140, -6580, -420, -399, 333, -220
42717, 108, 985, 217, 350, -1190, -210, -402, 331, -229
42718, 30, 951, 198, -1610, -2940, -420, -402, 337, -228
42719, 57, 972, 217, -2800, -6160, -630, -414, 325, -228
42720, 85, 958, 214, -3080, -5180, -420, -402, 322, -228
42721, 138, 967, 231, -1890, 280, 210, -402, 331, -232
42722, 164, 949, 233, 140, 7910, 1260, -405, 324, -232
42723, 189, 990, 236, 3850, 23450, 3850, -406, 316, -232
42724, 234, 1017, 221, 4900, 29890, 5320, -399, 325, -229
42725, 199, 992, 205, 5810, 36330, 6720, -409, 331, -229
42726, 206, 990, 214, 6300, 43260, 8330, -403, 324, -225
42727, 203, 940, 225, 7980, 53200, 11130, -403, 325, -222
42728, 238, 925, 203, 9240, 58100, 12600, -400, 334, -214
42729, 215, 914, 190, 10430, 66220, 14280, -399, 327, -216
42730, 191, 886, 202, 11480, 68180, 15680, -390, 324, -219
42731, 163, 929, 209, 11760, 70210, 16940, -390, 322, -213
42732, 126, 1025, 193, 11060, 68460, 19390, -396, 321, -214
42733, 68, 1015, 202, 9870, 62020, 20020, -400, 331, -208
42734, 17, 1037, 204, 7630, 54670, 20440, -397, 327, -199
42735, -9, 1109, 196, 5180, 42910, 20090, -406, 330, -195
42736, -49, 1143, 184, 2310, 32410, 19530, -406, 334, -207
42737, -77, 976, 208, -3150, 7840, 17570, -406, 331, -198
42738, -20, 914, 214, -4970, -6650, 16520, -409, 328, -207
42739, 9, 877, 198, -5670, -11830, 15960, -402, 333, -198
42740, 87, 880, 202, -4900, -15820, 15540, -396, 328, -201
42741, 54, 849, 192, -2940, -14980, 14630, -411, 327, -196
42742, 139, 948, 235, -2310, -15330, 14280, -406, 336, -207
42743, 188, 1079, 200, -2100, -14350, 14140, -408, 330, -199
42744, 196, 1117, 192, -2240, -10080, 14280, -415, 334, -198
42745, 133, 1048, 194, -3220, -8470, 13930, -411, 321, -204
42746, 122, 957, 198, -6650, -14350, 12320, -394, 328, -201
42747, 158, 923, 191, -7210, -13860, 12040, -408, 330, -208
42748, 180, 920, 194, -6440, -9590, 12040, -411, 342, -202
42749, 231, 884, 261, -4550, -5040, 11900, -403, 336, -210
42750, 247, 889, 238, -2170, 210, 11760, -418, 328, -219
42751, 288, 929, 229, 2660, 11480, 12110, -402, 336, -213
42752, 211, 909, 224, 3570, 16940, 12250, -408, 339, -207
42753, 170, 894, 225, 3570, 12600, 11550, -406, 333, -207
42754, 90, 926, 179, 2030, 10220, 10990, -420, 346, -205
42755, 80, 1062, 195, -2450, -3500, 9170, -408, 345, -210
42756, 48, 1082, 223, -5180, -10990, 7980, -411, 346, -202
42757, 14, 1072, 237, -7840, -20090, 6860, -414, 345, -214
42758, 19, 1044, 234, -9660, -27160, 5740, -409, 337, -222
42759, 53, 1011, 234, -10150, -32690, 4900, -414, 337, -219
42760, 93, 873, 225, -7980, -32970, 3920, -423, 345, -214
42761, 115, 888, 239, -6860, -30590, 3640, -420, 348, -204
42762, 57, 961, 210, -6580, -33880, 2870, -424, 360, -219
42763, 41, 1059, 219, -8190, -37660, 2030, -424, 346, -211
42764, 34, 1123, 236, -10290, -47460, 490, -427, 342, -217
42765, 8, 1087, 203, -14980, -59010, -2100, -433, 354, -213
42766, -38, 934, 220, -16940, -64050, -3360, -426, 348, -208
42767, -10, 869, 235, -17990, -70280, -4830, -426, 339, -229
42768, 50, 879, 248, -17360, -72030, -6020, -430, 342, -219
42769, 250, 955, 256, -11060, -56140, -6230, -430, 349, -223
42770, 225, 893, 254, -8050, -45640, -5880, -429, 345, -229
42771, 146, 879, 258, -6720, -40460, -5880, -427, 346, -235
42772, 97, 921, 239, -6790, -40670, -6230, -435, 343, -232
42773, 100, 978, 213, -7350, -40320, -6510, -429, 339, -235
42774, 111, 960, 239, -8400, -36190, -6720, -435, 336, -234
42775, 111, 962, 234, -8890, -36050, -7140, -430, 336, -235
42776, 176, 1006, 268, -8820, -34510, -7350, -438, 337, -246
42777, 215, 1069, 254, -7980, -29050, -7140, -429, 331, -243
42778, 261, 1058, 265, -6580, -21350, -6510, -426, 340, -243
42779, 217, 877, 266, -3640, -8680, -5390, -432, 328, -252
42780, 223, 877, 263, -2030, -4760, -5040, -430, 328, -240
42781, 245, 878, 247, -490, 2170, -4410, -433, 336, -247
42782, 244, 873, 242, 1330, 8050, -3920, -432, 336, -249
42783, 236, 803, 256, 3500, 14910, -3080, -426, 327, -250
42784, 209, 863, 224, 4130, 17780, -2520, -444, 334, -247
42785, 253, 916, 274, 4830, 21770, -1750, -424, 331, -246
42786, 243, 972, 252, 6160, 24150, -1050, -426, 324, -252
42787, 224, 931, 280, 7070, 30940, 70, -427, 337, -243
42788, 239, 928, 249, 9240, 35560, 1540, -421, 333, -231
42789, 260, 978, 251, 9870, 38080, 2380, -427, 327, -234
42790, 224, 1021, 239, 9800, 39690, 3080, -412, 331, -246
42791, 167, 1018, 241, 8750, 39130, 3430, -417, 340, -240
42792, 155, 989, 251, 7350, 34790, 3430, -427, 334, -231
42793, 233, 1039, 241, 5670, 29540, 3780, -427, 340, -231
42794, 237, 982, 218, 5670, 31500, 4270, -424, 328, -240
42795, 226, 869, 256, 5950, 33040, 4550, -418, 334, -235
42796, 179, 865, 230, 6230, 32690, 4620, -426, 334, -235
42797, 264, 976, 212, 8260, 33880, 4970, -427, 331, -229
42798, 280, 975, 227, 9170, 37100, 5320, -426, 331, -228
42799, 194, 934, 215, 8750, 36540, 5180, -421, 331, -225
42800, 140, 916, 208, 6580, 31360, 4690, -412, 339, -223
42801, 150, 972, 195, 3920, 20930, 3640, -417, 339, -217
42802, 173, 1025, 215, -280, 10010, 2030, -430, 334, -223
42803, 113, 1017, 233, -1470, 7630, 1190, -420, 334, -217
42804, 151, 1008, 256, -1890, 3360, 210, -427, 334, -225
42805, 186, 1001, 246, -1750, -70, -490, -418, 346, -223
42806, 208, 906, 250, -980, 1120, -1190, -421, 340, -234
42807, 155, 856, 206, 1260, 630, -1610, -418, 342, -228
42808, 127, 925, 208, 1050, 1820, -2100, -424, 339, -229
42809, 107, 1025, 205, 140, -6370, -3150, -415, 337, -234
42810, 97, 1103, 218, -2450, -9800, -3850, -421, 343, -235
42811, 43, 1161, 215, -8960, -26530, -6440, -421, 334, -225
42812, 1, 1050, 232, -11480, -36330, -7910, -418, 340, -235
42813, 33, 933, 236, -13160, -41020, -9240, -421, 345, -232
42814, 88, 828, 236, -12460, -45010, -10360, -423, 349, -229
42815, 133, 807, 215, -10710, -39130, -10570, -418, 343, -244
42816, 133, 772, 231, -5530, -31010, -11270, -415, 340, -235
42817, 164, 875, 253, -4130, -28140, -11480, -433, 346, -237
42818, 155, 1058, 264, -3780, -27510, -11970, -421, 340, -244
42819, 102, 1122, 233, -4410, -27300, -12460, -424, 337, -247
42820, 105, 1096, 231, -7280, -31010, -13790, -420, 337, -247
42821, 80, 884, 247, -8330, -32340, -14280, -420, 331, -247
42822, 127, 869, 276, -7560, -31430, -14630, -424, 339, -243
42823, 212, 921, 255, -4760, -24500, -14280, -421, 337, -246
42824, 287, 924, 260, -490, -12110, -13020, -418, 330, -249
42825, 157, 873, 247, 5110, 8400, -10290, -423, 331, -241
42826, 130, 933, 251, 5040, 9100, -9730, -418, 333, -249
42827, 94, 1010, 219, 4340, 8330, -9100, -418, 334, -238
42828, 123, 1050, 201, 3500, 10430, -8400, -412, 334, -243
42829, 69, 1018, 211, 2450, 12950, -7420, -418, 336, -234
42830, 67, 972, 227, 420, 8190, -6580, -418, 334, -258
42831, 160, 1007, 273, 490, 10290, -5880, -415, 330, -243
42832, 164, 1028, 229, 1820, 12250, -5110, -411, 328, -244
42833, 163, 956, 259, 3150, 18900, -4060, -412, 336, -250
42834, 94, 845, 271, 4480, 14630, -3850, -408, 334, -240
42835, 102, 952, 227, 4620, 11200, -3780, -417, 327, -250
42836, 143, 1016, 236, 4620, 10220, -3850, -417, 324, -244
42837, 76, 1010, 209, 4060, 6860, -4130, -415, 328, -241
42838, 28, 959, 246, 2240, 2450, -4900, -418, 327, -247
42839, 37, 1028, 228, -2310, -14910, -6930, -402, 324, -244
42840, 51, 1063, 206, -3360, -19600, -7630, -411, 321, -249
42841, 73, 983, 235, -3920, -19180, -7840, -411, 321, -238
42842, 52, 883, 246, -4200, -21000, -8400, -411, 321, -247
42843, 44, 856, 218, -4550, -22470, -8890, -406, 318, -256
42844, 128, 962, 223, -3990, -19600, -9310, -415, 324, -249
42845, 173, 993, 262, -3220, -15120, -9240, -406, 322, -244
42846, 169, 1001, 270, -2660, -11830, -9520, -406, 328, -258
42847, 203, 1000, 265, -1960, -7420, -9590, -402, 315, -258
42848, 228, 973, 263, 420, 3430, -9030, -408, 325, -256
42849, 253, 877, 238, 1960, 10080, -8540, -412, 319, -252
42850, 245, 830, 245, 3500, 17360, -8120, -418, 321, -264
42851, 183, 872, 242, 4690, 22540, -7770, -411, 318, -252
42852, 223, 952, 254, 5950, 23800, -7560, -414, 319, -256
42853, 223, 1104, 245, 7630, 29400, -6650, -403, 315, -246
42854, 140, 1104, 237, 7070, 32550, -6300, -403, 322, -256
42855, 78, 1007, 241, 5600, 25270, -6790, -403, 318, -241
42856, -8, 762, 237, 3360, 23240, -6930, -402, 318, -252
42857, -17, 477, 212, 3080, 13020, -7840, -406, 319, -246
42858, 228, 681, 229, 8750, 16870, -7000, -393, 315, -243
42859, 268, 1023, 254, 12040, 29750, -5600, -400, 318, -250
42860, 196, 1199, 310, 13230, 33950, -4620, -402, 322, -255
42861, 67, 1393, 309, 11830, 30450, -4760, -396, 316, -244
42862, 44, 1566, 237, 3780, 10850, -5740, -400, 318, -243
42863, -47, 1236, 247, -70, -7000, -7140, -397, 322, -247
42864, -151, 913, 157, -4550, -7210, -7280, -399, 319, -247
42865, -46, 631, 214, -6440, -22610, -8750, -400, 315, -250
42866, -94, 486, 172, -7420, -17430, -8400, -400, 318, -247
42867, 180, 868, 266, -140, 420, -6650, -402, 315, -246
42868, 317, 1016, 338, 5810, 1680, -6090, -393, 328, -252
42869, 135, 1172, 328, 8610, 20020, -4270, -390, 325, -252
42870, 196, 1160, 337, 10430, 14000, -4410, -400, 330, -246
42871, 2, 1092, 244, 8890, 18550, -3780, -399, 313, -247
42872, -114, 956, 160, 2870, 4200, -4970, -399, 322, -238
42873, -36, 945, 191, -700, -6440, -6020, -393, 321, -237
42874, -45, 912, 191, -3780, -12110, -6580, -396, 325, -255
42875, 57, 1045, 218, -6020, -12810, -6650, -390, 310, -234
42876, 186, 1044, 351, -4900, -13720, -7070, -393, 324, -240
42877, 226, 1224, 302, -1960, -4410, -6090, -394, 319, -247
42878, 368, 1318, 311, 1960, 9870, -4900, -388, 309, -241
42879, 211, 1150, 290, 4620, 18410, -3850, -391, 325, -232
42880, 11, 826, 274, 3780, 26810, -3360, -393, 321, -231
42881, 9, 656, 116, 700, 12670, -4830, -391, 312, -225
42882, 119, 676, 162, 980, 11270, -4690, -396, 319, -232
42883, 60, 731, 188, 1400, 16310, -3990, -388, 316, -220
42884, 57, 790, 316, 1610, 16310, -4130, -382, 316, -226
42885, 144, 1099, 279, 2730, 9310, -4900, -397, 309, -234
42886, 338, 1390, 292, 6790, 26040, -3640, -393, 322, -226
42887, 247, 1194, 285, 8050, 37380, -2940, -388, 306, -225
42888, 111, 987, 256, 7280, 37870, -3220, -388, 310, -228
42889, 110, 878, 229, 4970, 31920, -3990, -381, 307, -217
42890, 146, 888, 156, 1750, 30520, -3990, -382, 301, -225
42891, 89, 832, 181, 1400, 30030, -4130, -376, 310, -216
42892, 22, 849, 247, 700, 30240, -4340, -385, 303, -216
42893, 117, 985, 292, 910, 23590, -4970, -378, 312, -216
42894, 208, 1149, 277, 1960, 25480, -4900, -385, 310, -219
42895, 207, 1015, 293, 6510, 40180, -3500, -373, 298, -202
42896, 97, 869, 225, 7560, 41020, -3570, -378, 310, -210
42897, 109, 799, 219, 6860, 39550, -3920, -376, 316, -204
42898, 99, 822, 186, 5530, 33390, -4760, -381, 312, -207
42899, 97, 880, 167, 3780, 31780, -5110, -376, 319, -199
42900, 98, 982, 223, 1750, 26600, -6510, -381, 309, -208
42901, 153, 1031, 289, 1260, 26040, -7000, -381, 319, -198
42902, 217, 1107, 285, 2100, 26460, -7420, -381, 307, -193
42903, 243, 1062, 267, 3780, 31150, -7140, -364, 306, -201
42904, 138, 782, 250, 7350, 40110, -7000, -372, 310, -196
42905, 90, 677, 211, 8190, 43820, -6790, -376, 310, -189
42906, 108, 658, 208, 8890, 42000, -6930, -370, 309, -193
42907, 88, 702, 184, 9520, 42350, -6650, -370, 318, -186
42908, 46, 766, 238, 9240, 42280, -6440, -364, 309, -190
42909, 58, 1056, 259, 8400, 32480, -6790, -366, 301, -184
42910, 72, 1230, 293, 7910, 34160, -6440, -376, 312, -184
42911, 114, 1305, 307, 8610, 28420, -6720, -375, 307, -177
42912, 40, 1356, 261, 7910, 35070, -5950, -366, 316, -183
42913, 97, 1347, 201, 6300, 28840, -6090, -367, 315, -184
42914, -214, 752, 228, -7140, 6020, -8190, -376, 318, -189
42915, -451, 819, 106, -15260, -12390, -9170, -364, 322, -193
42916, 218, 1108, 313, -17010, -26180, -10080, -379, 316, -195
42917, 198, 1176, 236, -12600, -12180, -8050, -375, 322, -189
42918, 85, 707, 438, 3570, 28280, -4060, -367, 318, -192
42919, 94, 781, 293, 9870, 39340, -2520, -375, 328, -180
42920, 260, 921, 210, 14490, 50400, -140, -364, 316, -186
42921, 103, 947, 88, 15400, 63000, 2520, -370, 330, -177
42922, -158, 804, 99, 11130, 56140, 3010, -367, 324, -175
42923, -211, 1388, 167, -8820, -4970, -1400, -361, 336, -172
42924, -78, 1682, 181, -16450, -10220, -1120, -367, 324, -180
42925, 63, 1545, 295, -17010, -13580, -840, -370, 330, -181
42926, -43, 1136, 294, -14770, 2100, 840, -363, 324, -181
42927, 25, 753, 321, -9800, 20510, 3360, -369, 333, -175
42928, 107, 492, 239, 2100, 30380, 5880, -367, 319, -184
42929, 116, 615, 178, 7630, 44660, 8820, -360, 313, -175
42930, -71, 705, 140, 10150, 49140, 11270, -370, 324, -178
42931, -200, 828, 189, 7770, 44660, 11970, -367, 322, -160
42932, -237, 1150, 303, -3640, -1190, 9940, -363, 312, -169
42933, -123, 1344, 268, -4410, -12950, 10430, -373, 330, -172
42934, 143, 1231, 284, -1050, 3150, 12880, -370, 315, -174
42935, -148, 721, 146, 3570, 14630, 15120, -376, 319, -166
42936, -287, 228, 228, 3430, 24080, 16240, -375, 318, -165
42937, -77, 678, 169, -2030, -10290, 14910, -373, 316, -166
42938, 198, 1109, 183, -700, -15470, 15610, -373, 316, -181
42939, 82, 1556, 223, 700, 6020, 18200, -370, 327, -160
42940, 100, 1718, 416, 770, 2030, 17500, -366, 319, -174
42941, -42, 1895, 399, -7840, -17640, 14630, -370, 318, -174
42942, 174, 1417, 222, -10430, -11620, 14910, -370, 312, -177
42943, 63, 785, 168, -10570, -10360, 14770, -375, 315, -168
42944, -137, 286, 139, -11060, -1330, 14630, -376, 315, -174
42945, -99, 86, 183, -9590, -14140, 12600, -376, 322, -184
42946, 243, 585, 219, -1540, -4830, 12880, -379, 316, -187
42947, 224, 893, 287, 4270, 13860, 14490, -378, 319, -187
42948, 170, 1167, 347, 8260, 17220, 14560, -373, 324, -183
42949, 68, 1369, 341, 8540, 15610, 13720, -375, 321, -175
42950, 11, 1455, 274, 5670, 3500, 12180, -381, 316, -172
42951, -140, 1156, 165, -4900, -20300, 9240, -379, 327, -187
42952, -265, 880, 148, -11200, -33390, 7700, -373, 318, -189
42953, -290, 732, 170, -16170, -49910, 5460, -379, 321, -184
42954, -193, 713, 186, -17990, -61600, 3570, -381, 315, -195
42955, -97, 767, 217, -11830, -54810, 3080, -387, 319, -214
42956, 76, 833, 313, -6510, -45430, 3500, -373, 318, -210
42957, 9, 874, 283, -2240, -36120, 3990, -390, 324, -198
42958, 15, 930, 260, -280, -33950, 3920, -381, 328, -196
42959, -74, 1008, 202, -1120, -35350, 3500, -375, 322, -207
42960, -96, 1231, 212, -9310, -50960, 1330, -384, 327, -207
42961, -125, 1286, 170, -14770, -58520, 280, -385, 321, -208
42962, -104, 1184, 248, -19250, -64330, -1050, -396, 324, -208
42963, -98, 1030, 278, -21140, -68390, -2380, -387, 315, -228
42964, 65, 914, 317, -19670, -64260, -3150, -388, 330, -226
42965, 364, 735, 306, -5880, -25130, -490, -394, 316, -234
42966, 291, 621, 306, 2170, -840, 1750, -382, 328, -223
42967, 200, 590, 259, 8260, 12670, 3430, -400, 327, -223
42968, 181, 737, 242, 11410, 24990, 4970, -394, 328, -225
42969, 162, 932, 174, 10780, 32690, 7560, -393, 322, -229
42970, 39, 1158, 205, 8050, 24430, 7700, -390, 337, -223
42971, 43, 1238, 258, 3920, 22610, 7910, -388, 309, -216
42972, 98, 1305, 261, 1050, 16660, 7630, -399, 328, -219
42973, 236, 1256, 296, 630, 18830, 8050, -384, 321, -213
42974, 379, 845, 271, 7490, 41510, 10710, -393, 331, -214
42975, 304, 615, 248, 12390, 61950, 12810, -387, 322, -210
42976, 368, 533, 257, 17990, 66780, 13720, -391, 334, -202
42977, 325, 635, 163, 21700, 78960, 15330, -397, 318, -193
42978, 381, 812, 181, 24220, 83090, 16660, -388, 324, -187
42979, 154, 1156, 181, 19670, 76510, 16590, -390, 321, -186
42980, 82, 1231, 217, 13090, 59850, 14630, -388, 322, -190
42981, 27, 1269, 215, 6160, 39830, 12320, -376, 322, -175
42982, 111, 1220, 223, 1400, 24640, 10360, -385, 325, -175
42983, 111, 1061, 219, -210, 17850, 8260, -385, 316, -178
42984, 66, 669, 215, 560, 17220, 7350, -387, 325, -175
42985, 71, 660, 184, 980, 11970, 6300, -384, 313, -177
42986, 80, 729, 178, 140, 8960, 5530, -390, 318, -177
42987, 66, 903, 167, -1750, 1470, 4480, -381, 319, -175
42988, 14, 1193, 229, -8260, -12880, 1540, -382, 312, -175
42989, 68, 1276, 296, -11760, -18830, 70, -387, 310, -180
42990, 107, 1241, 327, -13160, -23450, -1190, -384, 312, -178
42991, 106, 1080, 344, -11970, -21070, -1400, -388, 324, -183
42992, 265, 971, 412, -6580, -13230, -1540, -390, 321, -184
42993, 296, 635, 218, 9240, 30170, 2240, -385, 318, -183
42994, 209, 459, 219, 14980, 34860, 2870, -391, 321, -187
42995, 4, 558, 158, 14630, 41020, 3360, -388, 319, -172
42996, 48, 933, 144, 11410, 23030, 2030, -393, 319, -178
42997, 49, 1448, 199, -350, 4550, 700, -381, 318, -168
42998, -34, 1427, 256, -5530, -1330, 0, -376, 313, -172
42999, -17, 1284, 316, -8470, -12810, -1400, -384, 310, -177
43000, 34, 1075, 276, -8890, -14560, -1750, -382, 313, -181
43001, 132, 897, 266, -6160, -10570, -1260, -388, 313, -180
43002, 67, 534, 215, 2590, 8470, 1050, -397, 321, -180
43003, 2, 519, 214, 5180, 9520, 1540, -382, 310, -184
43004, -34, 670, 172, 5600, 8540, 1820, -390, 307, -175
43005, 5, 932, 167, 4550, 910, 1610, -387, 301, -166
43006, -18, 1185, 199, 1470, -1890, 1680, -387, 310, -186
43007, -103, 1429, 246, -7070, -22750, 70, -394, 312, -183
43008, -55, 1368, 274, -11340, -31150, -770, -382, 312, -189
43009, -46, 1170, 240, -13790, -38920, -1540, -387, 315, -187
43010, -81, 915, 238, -14490, -36470, -1540, -393, 313, -190
43011, 10, 655, 195, -9030, -32060, -1680, -387, 316, -190
43012, 172, 705, 262, -4060, -23730, -980, -385, 306, -195
43013, 101, 826, 222, -210, -13580, 0, -381, 319, -189
43014, 121, 955, 256, 1750, -9800, 280, -397, 313, -186
43015, 30, 1106, 228, 980, -11340, -70, -397, 321, -190
43016, -3, 1263, 211, -5670, -24360, -2240, -388, 315, -183
43017, -7, 1185, 188, -9660, -30940, -3500, -387, 321, -183
43018, -56, 1043, 201, -13020, -36540, -4830, -393, 312, -186
43019, -67, 893, 233, -15400, -41790, -6090, -393, 327, -186
43020, -5, 817, 248, -15680, -45920, -7490, -387, 324, -193
43021, 142, 710, 276, -9940, -31010, -7350, -396, 319, -190
43022, 93, 629, 299, -4970, -21910, -6860, -399, 316, -190
43023, 172, 739, 333, 0, -12530, -6370, -394, 319, -192
43024, 256, 1013, 273, 5180, -6090, -5670, -393, 313, -186
43025, 121, 1182, 232, 8470, 14000, -3220, -396, 315, -190
43026, -42, 1032, 251, 4620, 7980, -3920, -388, 310, -180
43027, -173, 1011, 182, -1470, -7840, -5670, -391, 313, -193
43028, -22, 1049, 182, -6510, -21560, -6930, -387, 309, -192
43029, -6, 1034, 169, -9170, -22190, -7070, -382, 315, -184
43030, 32, 863, 321, -7560, -16520, -6860, -387, 304, -190
43031, 141, 933, 314, -4410, -15050, -6580, -393, 315, -187
43032, 256, 1035, 314, -840, -1540, -5180, -388, 310, -192
43033, 263, 1035, 259, 3500, 7280, -3780, -394, 315, -189
43034, 155, 961, 274, 5390, 20720, -2310, -385, 310, -186
43035, 43, 1027, 202, 2310, 11620, -3010, -384, 307, -187
43036, 48, 1091, 178, -1120, 5320, -3500, -388, 310, -199
43037, 70, 1053, 212, -3990, 1470, -4200, -385, 304, -186
43038, 37, 987, 233, -5950, -2100, -4830, -387, 300, -189
43039, 167, 934, 246, -4480, 280, -5460, -388, 315, -192
43040, 274, 898, 286, -1400, 9310, -4970, -385, 304, -193
43041, 172, 876, 257, 1820, 19110, -4130, -388, 303, -192
43042, 170, 809, 282, 4130, 23800, -3710, -378, 301, -186
43043, 52, 805, 235, 4970, 24710, -3570, -384, 316, -187
43044, 120, 991, 212, 5320, 21420, -3220, -381, 312, -193
43045, 110, 1021, 232, 4970, 21280, -2800, -391, 318, -183
43046, 17, 1051, 267, 3920, 18900, -3080, -379, 309, -184
43047, -10, 1059, 259, 2170, 8610, -4130, -388, 321, -190
43048, 16, 1093, 250, -70, -3710, -5530, -384, 306, -180
43049, 30, 980, 244, -2660, -2800, -5950, -379, 310, -177
43050, -24, 857, 223, -3430, -10710, -6930, -381, 303, -193
43051, -65, 673, 272, -5040, -8890, -7420, -390, 318, -193
43052, -71, 637, 236, -4620, -20020, -8960, -379, 307, -187
43053, 157, 911, 329, -840, -13230, -8820, -372, 315, -192
43054, 21, 910, 301, 1120, -10290, -8680, -378, 322, -193
43055, -53, 940, 339, 1540, -6790, -8610, -384, 315, -192
43056, 48, 1057, 318, 2450, -19880, -10010, -385, 319, -201
43057, 2, 1203, 242, 2030, -11410, -8960, -384, 322, -196
43058, -126, 1111, 220, -420, -8260, -7560, -379, 325, -199
43059, -164, 1041, 258, -3710, -21980, -8190, -375, 319, -198
43060, -221, 1081, 268, -7980, -27090, -8470, -387, 321, -201
43061, -55, 1101, 282, -9450, -41440, -9310, -394, 324, -196
43062, -62, 1068, 254, -6790, -29750, -7700, -382, 321, -193
43063, -124, 814, 296, -5250, -12880, -5950, -393, 319, -210
43064, 82, 834, 378, -1890, -24150, -6580, -370, 313, -202
43065, -64, 909, 218, -770, -9100, -4690, -388, 303, -204
43066, 51, 846, 285, 1400, -15260, -4200, -385, 312, -205
43067, -138, 797, 319, -420, -25830, -4130, -390, 319, -207
43068, -202, 1112, 243, -3290, -21980, -3430, -382, 316, -201
43069, 122, 1343, 312, -3360, -38010, -4200, -388, 310, -201
43070, -80, 1386, 265, -5250, -19460, -1960, -379, 307, -205
43071, -55, 1132, 383, -6300, -30940, -2870, -387, 309, -213
43072, 2, 910, 296, -10920, -47460, -5460, -387, 309, -213
43073, 3, 863, 251, -10990, -36330, -5320, -382, 310, -208
43074, 129, 718, 253, -7560, -35770, -5600, -382, 318, -222
43075, 0, 680, 240, -5250, -16800, -4620, -385, 303, -222
43076, 66, 726, 309, -3710, -19460, -5880, -385, 310, -217
43077, 64, 1112, 337, -3290, -35140, -7630, -385, 303, -207
43078, -58, 1204, 278, -4620, -26040, -7560, -385, 307, -222
43079, -38, 1090, 330, -4620, -37240, -9240, -384, 303, -226
43080, -193, 900, 306, -6650, -34790, -10290, -382, 306, -223
43081, -71, 848, 232, -8540, -46340, -13860, -382, 304, -229
43082, 198, 924, 301, -6300, -52780, -15540, -388, 304, -234
43083, 36, 962, 261, -4760, -32690, -14700, -391, 301, -247
43084, 208, 938, 365, -2100, -35070, -15680, -391, 304, -240
43085, -29, 1020, 264, -2100, -19880, -15120, -385, 301, -232
43086, 3, 1112, 257, -2030, -16520, -15610, -385, 304, -241
43087, 159, 1031, 321, -1330, -16380, -15610, -385, 304, -238
43088, -45, 920, 215, -1400, -5950, -14560, -381, 306, -246
43089, 90, 810, 319, -840, -8680, -15050, -391, 310, -243
43090, -88, 855, 209, -280, -6020, -14700, -378, 294, -244
43091, -33, 1002, 223, 560, 1960, -13510, -373, 300, -252
43092, 136, 1013, 353, 1820, 2310, -13230, -378, 303, -243
43093, -106, 984, 219, 2030, 6300, -12460, -382, 303, -256
43094, 104, 939, 349, 2170, 2380, -12950, -379, 309, -241
43095, 88, 860, 337, 1190, 0, -13510, -385, 304, -250
43096, -72, 906, 165, 1190, -4480, -14000, -387, 303, -247
43097, 117, 944, 280, 350, -1190, -14420, -379, 295, -253
43098, -181, 855, 187, -840, -10080, -15330, -373, 301, -243
43099, 0, 919, 388, -3640, -10920, -16730, -379, 300, -247
43100, 61, 1221, 323, -8470, -20160, -19040, -379, 307, -252
43101, -84, 1101, 296, -8470, -40740, -21560, -376, 297, -253
43102, -95, 1000, 383, -11410, -25410, -21630, -373, 298, -261
43103, -83, 935, 306, -10360, -48790, -24850, -379, 303, -261
43104, 22, 942, 307, -5810, -38080, -25900, -360, 301, -267
43105, 0, 799, 297, -4060, -5530, -23590, -375, 303, -261
43106, 99, 653, 381, 420, -19110, -24850, -367, 300, -264
43107, -120, 721, 211, 280, 7210, -22540, -372, 300, -259
43108, 136, 782, 350, 3010, -8890, -23730, -375, 297, -262
43109, 176, 934, 471, 5250, 3010, -21630, -376, 291, -253
43110, -65, 1199, 269, 6020, 22750, -18620, -367, 297, -249
43111, 295, 1321, 480, 8750, 22890, -17150, -355, 279, -249
43112, -154, 1219, 310, 8540, 39900, -13650, -367, 274, -249
43113, -18, 933, 470, 8540, 33810, -12460, -355, 286, -249
43114, -60, 788, 389, 7910, 29960, -9520, -363, 271, -246
43115, -68, 841, 264, 10150, 22260, -8750, -360, 285, -241
43116, -129, 848, 260, 9870, 37310, -5880, -348, 274, -247
43117, -63, 852, 383, 10080, 21420, -6650, -361, 291, -235
43118, 11, 1131, 452, 3780, 6510, -6160, -357, 280, -244
43119, -70, 1248, 320, 3010, 7350, -4690, -354, 286, -243
43120, 39, 1160, 404, 4200, 22050, -1750, -355, 273, -238
43121, -129, 930, 364, 6650, 27020, 490, -348, 282, -231
43122, -186, 751, 425, 7700, 33950, 3220, -352, 277, -229
43123, -103, 975, 260, 9800, 37940, 9240, -360, 288, -238
43124, -16, 1057, 338, 10990, 35350, 11620, -352, 283, -225
43125, -349, 1050, 289, 8330, 40110, 14700, -351, 289, -220
43126, -160, 1103, 429, 5040, 23730, 14840, -351, 285, -216
43127, -223, 1240, 274, 1400, 13160, 15680, -364, 292, -223
43128, -74, 979, 318, 770, 12810, 18760, -351, 279, -223
43129, -129, 757, 304, 1610, 21210, 20370, -361, 285, -214
43130, -42, 696, 350, 3360, 16170, 20230, -354, 283, -226
43131, 9, 808, 270, 4760, 15330, 20930, -361, 291, -216
43132, 78, 924, 278, 6230, 20580, 22540, -364, 285, -213
43133, -77, 964, 273, 3710, 22470, 22890, -361, 294, -216
43134, 82, 1129, 331, 1540, 7070, 21210, -370, 303, -219
43135, 25, 1233, 238, -1050, 3220, 20650, -372, 304, -214
43136, 88, 1169, 269, -2730, 4200, 20020, -363, 295, -216
43137, -37, 889, 275, -6090, -2310, 17360, -364, 300, -216
43138, 106, 924, 307, -6650, -14770, 14840, -367, 309, -217
43139, 146, 1013, 261, -6300, -11060, 14070, -375, 306, -213
43140, 250, 978, 266, -3920, -2590, 13370, -372, 304, -222
43141, 185, 838, 271, -980, 4760, 12460, -363, 318, -211
43142, 204, 815, 289, 700, 7420, 10080, -382, 307, -216
43143, 198, 837, 230, 1190, 9870, 9310, -370, 304, -210
43144, 272, 824, 244, 1960, 19460, 9030, -373, 306, -211
43145, 179, 647, 249, 3710, 19530, 7840, -372, 307, -208
43146, 335, 1052, 332, 5320, 14700, 5040, -378, 309, -204
43147, 369, 1414, 258, 6020, 23170, 5320, -367, 309, -201
43148, 339, 1420, 314, 5880, 32690, 5180, -370, 309, -204
43149, 46, 1216, 312, 4130, 26180, 3360, -382, 306, -205
43150, -1, 1067, 308, -490, 15260, 980, -372, 303, -204
43151, 165, 946, 184, -5740, 1540, -2590, -372, 303, -192
43152, -17, 527, 193, -6580, 8680, -3220, -364, 301, -208
43153, -166, 127, 252, -6440, 3710, -5250, -357, 300, -199
43154, -45, 400, 268, -4970, -9520, -7700, -370, 303, -205
43155, 334, 769, 433, -1610, -3500, -8610, -370, 307, -207
43156, 391, 694, 419, 12530, 32830, -8960, -373, 297, -214
43157, 342, 781, 383, 17850, 36050, -10850, -372, 307, -196
43158, 425, 1057, 354, 19180, 37100, -12110, -373, 297, -202
43159, 364, 1357, 272, 17290, 38150, -12950, -364, 306, -187
43160, -66, 1188, 275, 6160, 23590, -15820, -366, 303, -205
43161, -163, 1077, 278, -560, 14000, -16870, -369, 291, -195
43162, 34, 1017, 324, -2940, 1050, -17780, -360, 298, -192
43163, 113, 933, 303, -1260, 14980, -15890, -370, 301, -192
43164, 216, 819, 320, 4690, 35560, -13090, -369, 291, -202
43165, 153, 745, 330, 17010, 68950, -6720, -370, 303, -192
43166, 205, 859, 283, 19880, 77910, -3360, -363, 294, -195
43167, 128, 977, 264, 20440, 83370, -210, -364, 297, -180
43168, 0, 1080, 217, 17920, 79380, 2240, -354, 300, -175
43169, -79, 1209, 254, 12950, 70140, 5040, -369, 297, -184
43170, -21, 1518, 257, 3150, 43610, 6860, -360, 303, -168
43171, -119, 1488, 214, -630, 41160, 9240, -363, 309, -166
43172, -252, 1215, 305, -4130, 31920, 10710, -363, 306, -175
43173, -432, 979, 251, -7980, 21070, 12180, -370, 304, -168
43174, -260, 791, 192, -7210, 7210, 15750, -366, 315, -166
43175, -271, 611, 215, -4410, 13020, 18410, -369, 307, -160
43176, -321, 514, 266, -1540, 12530, 19810, -364, 307, -168
43177, -260, 647, 242, -70, 0, 20440, -363, 306, -180
43178, -186, 890, 184, -1400, -1470, 22120, -376, 312, -166
43179, -113, 1441, 231, -5670, -16590, 23100, -369, 309, -162
43180, -96, 1465, 268, -10220, -17290, 23380, -366, 303, -169
43181, -293, 1273, 200, -14700, -24990, 22960, -373, 307, -174
43182, -171, 948, 301, -17850, -33110, 22260, -373, 312, -168
43183, -264, 759, 217, -12110, -23660, 23730, -372, 307, -177
43184, 218, 837, 221, -2940, 630, 26390, -361, 307, -172
43185, 356, 766, 325, 6020, 30030, 29540, -373, 304, -172
43186, 177, 702, 297, 11690, 43470, 31150, -370, 310, -177
43187, 207, 849, 248, 12950, 42000, 31780, -370, 312, -162
43188, 81, 935, 188, 4970, 34160, 31990, -370, 319, -168
43189, -31, 973, 124, -980, 17850, 29750, -378, 313, -156
43190, -69, 1094, 87, -7980, 630, 27650, -381, 315, -168
43191, -53, 1202, 89, -15120, -6580, 26040, -381, 312, -163
43192, -110, 1083, 232, -20440, -23030, 23310, -375, 315, -172
43193, 185, 1065, 452, -22120, -40320, 18620, -379, 310, -166
43194, 498, 1144, 379, -13790, -24640, 18480, -390, 321, -183
43195, 650, 892, 418, -1330, 10430, 19530, -381, 318, -174
43196, 534, 487, 338, 10640, 38710, 20020, -390, 321, -174
43197, 311, 288, 224, 17290, 49630, 18830, -387, 316, -165
43198, 292, 846, 112, 11760, 39550, 17360, -387, 328, -162
43199, 372, 1302, 88, 4060, 26950, 15260, -391, 321, -160
43200, 285, 1464, 229, -4760, 19180, 12600, -394, 327, -165
43201, 262, 1486, 283, -10780, 2660, 8750, -387, 324, -171
43202, 561, 1100, 383, -9520, 10850, 5460, -394, 339, -169
43203, 546, 707, 336, -2310, 36540, 6090, -390, 339, -165
43204, 492, 386, 254, 6720, 56700, 6370, -402, 331, -159
43205, 379, 332, 281, 14560, 73640, 6510, -391, 328, -157
43206, 456, 461, 274, 21000, 73570, 6090, -391, 334, -156
43207, 415, 457, 227, 24640, 83650, 7350, -394, 333, -153
43208, 264, 234, 117, 23940, 67200, 5460, -379, 328, -148
43209, 90, 3, 116, 21350, 70210, 4620, -387, 325, -138
43210, 190, -6, 185, 23800, 47600, 140, -390, 325, -129
43211, 104, 823, -34, 30100, 59220, -2310, -381, 334, -133
43212, 280, 1436, 286, 28210, 60480, -2240, -376, 330, -120
43213, 554, 1209, 527, 23310, 39550, -4480, -379, 334, -126
43214, 448, 1551, 161, 21280, 16520, -6860, -385, 327, -124
43215, 593, 1925, 127, 19250, 27720, -6790, -378, 319, -124
43216, -295, 992, -48, 11130, 20230, -11410, -378, 325, -114
43217, -203, 1483, 165, -350, -700, -13720, -378, 328, -118
43218, -226, 1690, 173, -10150, -35980, -16730, -381, 325, -109
43219, -106, 1457, 128, -15820, -37240, -16590, -382, 324, -118
43220, 147, 1141, 155, -13230, -42840, -16940, -381, 324, -123
43221, 252, 935, 240, -1750, -6300, -16380, -378, 324, -120
43222, 21, 869, 98, 910, 18550, -14840, -381, 324, -130
43223, 291, 1355, 123, 2380, 7630, -16240, -370, 324, -118
43224, -53, 1790, 26, -2940, 17150, -15680, -373, 322, -132
43225, -82, 1441, 151, -19880, -21490, -20650, -369, 325, -124
43226, -119, 207, 86, -21490, -54320, -22890, -366, 312, -135
43227, 190, 29, 16, -16520, -32410, -19460, -370, 316, -138
43228, 586, -53, 159, -3920, -4340, -15960, -370, 315, -142
43229, 401, -170, 171, 8400, 45290, -11340, -366, 315, -129
43230, 160, 72, 123, 25970, 85190, -6510, -370, 313, -121
43231, 497, 434, 73, 34020, 89530, -4550, -364, 315, -117
43232, 426, 1715, -44, 38290, 126000, -1190, -354, 315, -112
43233, 226, 3810, -164, 35280, 120820, -2450, -364, 322, -112
43234, -364, 3997, -157, 10990, 108990, -8540, -370, 315, -109
43235, -656, 2690, 306, -64190, -112910, -28000, -364, 324, -118
43236, -266, 1464, -169, -85890, -199920, -27930, -367, 315, -138
43237, 200, 595, -112, -85750, -176190, -20440, -364, 318, -142
43238, 563, 186, -425, -68390, -177800, -17360, -375, 313, -151
43239, -1131, -735, -12, -62300, -113610, -16660, -361, 310, -174
43240, -735, -501, 194, -69020, -163380, -22680, -360, 304, -177
43241, -214, 35, 67, -65380, -203000, -26390, -375, 312, -186
43242, 877, 25, 325, -49630, -177380, -24850, -366, 307, -198
43243, 873, 86, 416, -26110, -82320, -20370, -361, 310, -205
43244, 263, 646, 317, 19670, 54600, -23660, -364, 295, -202
43245, -467, 563, 230, 34020, 80010, -31360, -360, 298, -184
43246, -1167, 1251, 500, 31430, 129290, -38850, -361, 298, -198
43247, -1517, 2778, -92, 28560, 29330, -53970, -357, 295, -189
43248, 194, 3375, 448, 12880, 14140, -58380, -352, 289, -183
43249, 370, 936, 565, -21420, 11620, -55160, -342, 291, -199
43250, -645, -8, -294, -28560, -73150, -62300, -348, 291, -202
43251, 519, 423, 236, -31290, -60130, -60550, -334, 283, -199
43252, 607, 598, -234, -18410, -57680, -61950, -337, 282, -205
43253, 659, -195, 273, 9730, 34720, -59710, -343, 280, -198
43254, 296, 51, 168, 15120, 105980, -55650, -334, 276, -195
43255, 712, 413, 161, 29960, 82460, -59850, -325, 282, -199
43256, 561, 481, -212, 39830, 149310, -53690, -330, 268, -190
43257, 675, 47, 59, 51310, 172410, -51520, -328, 282, -175
43258, 25, 236, 62, 61530, 207690, -48790, -315, 271, -153
43259, 441, 1301, 137, 72240, 199080, -48580, -310, 262, -132
43260, 706, 2182, -103, 83720, 205240, -43540, -307, 268, -126
43261, 1564, 2123, 153, 92540, 240520, -38150, -310, 268, -106
43262, 247, 1995, -343, 85330, 292530, -32060, -307, 267, -85
43263, -2060, 3651, -679, 18130, 89600, -53550, -310, 259, -72
43264, 504, 3412, -3, -5740, -125090, -74340, -304, 250, -85
43265, -532, 2329, -560, -46060, -5320, -56700, -292, 255, -90
43266, -36, 1037, 229, -49700, -178500, -73570, -295, 247, -102
43267, 589, 336, 111, -62090, -199290, -74060, -292, 250, -120
43268, -241, 329, -492, -70140, -110810, -65870, -301, 253, -145
43269, 386, 43, 167, -63630, -174650, -74480, -297, 241, -162
43270, -548, -59, -305, -73710, -121800, -70770, -300, 235, -165
43271, 110, -127, 81, -72870, -194320, -79310, -291, 240, -180
43272, 784, -190, 572, -59640, -156240, -77350, -280, 237, -199
43273, 1401, 233, -24, -36190, -119980, -75110, -286, 229, -207
43274, 1706, 340, -98, -2380, -5180, -64890, -285, 232, -214
43275, 1535, 28, 162, 32760, 105840, -55790, -274, 226, -198
43276, 555, -157, 27, 57470, 199640, -45220, -279, 214, -184
43277, -940, 7, -320, 64050, 217490, -39830, -267, 216, -177
43278, -334, 302, -39, 62860, 166810, -46620, -267, 214, -147
43279, -681, 1978, 38, 60480, 228620, -52710, -267, 211, -136
43280, -2911, 3581, -668, 55510, 319480, -61180, -265, 211, -115
43281, -1603, 1275, 300, 36610, 200830, -101570, -249, 198, -91
43282, -83, 431, -156, 24710, 49560, -119700, -255, 190, -84
43283, -66, 543, -162, 4410, 160720, -105420, -250, 183, -70
43284, 1357, 500, -411, 34230, 14070, -118020, -240, 171, -78
43285, 2105, 367, 409, 46900, 277200, -87990, -246, 165, -67
43286, 1029, 190, -60, 100730, 453110, -64680, -240, 156, -36
43287, -796, 51, -785, 115290, 373520, -68250, -247, 159, 3
43288, -676, 118, -104, 101710, 351120, -68460, -246, 148, 25
43289, -489, 923, -663, 99120, 243460, -77000, -250, 141, 45
43290, -10, 2068, -727, 88060, 297010, -78960, -250, 132, 72
43291, -433, 1040, -198, 74690, 283500, -77700, -252, 123, 84
43292, -1029, 906, -701, 65800, 161000, -89250, -259, 123, 99
43293, -280, 1530, -395, 46970, 147980, -88270, -252, 109, 99
43294, -144, 1756, -696, 39900, 84350, -91700, -255, 103, 112
43295, -816, 1131, -780, 20650, 70630, -94220, -261, 99, 123
43296, -547, 591, -254, 7560, 42210, -96250, -262, 100, 117
43297, -412, 508, -415, -1120, -8260, -97510, -253, 99, 118
43298, 570, 485, -156, -4760, -7560, -92050, -262, 84, 118
43299, 974, 241, 11, 1610, 25550, -86170, -255, 82, 123
43300, 1196, 1142, -376, 33600, 92960, -64050, -249, 78, 120
43301, -1012, 3228, -1951, 37590, 203350, -58520, -255, 67, 129
43302, -2453, 3407, -3314, 45360, 111580, -86310, -259, 69, 138
43303, -527, 1813, -1985, 52570, -18410, -122220, -258, 58, 139
43304, 357, 28, -457, 33040, 100380, -125300, -259, 52, 148
43305, -154, 540, -311, 37100, 51380, -118580, -259, 49, 141
43306, 1082, 279, 342, 46410, 61880, -113260, -271, 42, 144
43307, -412, -242, -909, 44800, 134050, -99120, -264, 28, 148
43308, 431, -639, 355, 47670, 94920, -105770, -265, 18, 153
43309, 1171, 240, 128, 52150, 47110, -112000, -268, 22, 159
43310, 370, 482, -939, 50540, 209300, -91420, -265, 15, 171
43311, 47, 656, -584, 67340, 140350, -97510, -274, 3, 172
43312, -2262, 1454, -2458, 48580, 222390, -101920, -289, 3, 181
43313, -1509, 1040, -3997, 81060, -54530, -146440, -286, -15, 169
43314, -1046, -81, -2586, 76230, 328440, -140140, -286, -9, 184
43315, 1697, 83, -33, 139090, -2730, -178150, -301, -31, 187
43316, 348, 79, -699, 112560, 382970, -134820, -300, -42, 189
43317, -803, -289, -1024, 145740, 140000, -158060, -309, -52, 199
43318, -232, -478, 0, 140980, 111720, -161000, -316, -66, 204
43319, 290, -39, -397, 136080, 182700, -152740, -325, -82, 201
43320, -46, 9, -720, 149660, 136290, -156590, -340, -93, 213
43321, -369, -148, -682, 149240, 184380, -149940, -346, -102, 199
43322, -134, -93, -488, 166460, 70280, -160580, -349, -117, 207
43323, -3997, -2728, -3997, 9940, 500710, 200900, -367, -123, 217
43324, -3997, -2484, -3997, 28700, -210210, 182280, -402, -120, 240
43325, -1832, -558, -2974, -8400, -316400, 28700, -370, -129, 219
43326, 3329, 433, 1124, 98280, -259140, -97020, -351, -126, 210
43327, 3997, 744, -2000, 65730, 323750, -302960, -363, -141, 219
43328, -3997, -371, -3494, -47670, 859250, 54530, -382, -133, 229
43329, -3997, -1425, -3997, 83510, -273910, -19110, -439, -136, 249
43330, 3587, 1377, 1103, 90160, -372610, -48930, -411, -150, 241
43331, 3629, 669, 636, 51590, 109900, 5670, -397, -145, 232
43332, -1382, 627, -2117, 71820, -3150, -9380, -415, -145, 238
43333, -798, -274, -866, 24920, 156170, -280, -420, -156, 243
43334, -588, 171, -1680, 38640, -29470, -16870, -427, -156, 235
43335, 426, 647, -812, 6370, 115010, 13860, -427, -156, 237
43336, -188, 20, -1131, 27370, 18130, -2100, -435, -157, 238
43337, -87, 135, -378, 20160, 10220, -7980, -445, -156, 240
43338, -719, 149, -1293, -1330, 43680, 2730, -435, -154, 223
43339, 261, 345, -793, 7280, -7840, -1540, -433, -154, 235
43340, -383, 71, -1509, 2800, 11900, 1190, -438, -153, 237
43341, -102, 318, -566, 210, 27860, 1960, -441, -154, 243
43342, -139, 331, -959, -8120, 9940, 2590, -432, -174, 238
43343, -324, 319, -1052, -1470, -33530, -2660, -429, -154, 234
43344, -338, 131, -710, -7280, 7350, 840, -432, -162, 235
43345, -412, 233, -954, -3080, -23170, -2730, -436, -157, 243
43346, -357, 61, -1080, -2520, -6440, -700, -432, -156, 243
43347, -337, 9, -628, -910, 2030, -490, -445, -159, 243
43348, -461, 114, -1105, 1260, -4550, -560, -435, -163, 234
43349, -277, 42, -671, 350, 9380, 700, -447, -154, 244
43350, -426, 165, -1076, 2660, -1890, 70, -435, -156, 231
43351, -438, 230, -1083, 1330, 630, 210, -438, -162, 238
43352, -228, 152, -838, 420, -4690, -490, -435, -157, 238
43353, -465, 234, -1012, -1750, 7280, 910, -436, -153, 234
43354, -146, 159, -752, 630, -14980, -1680, -430, -156, 249
43355, -568, 192, -1100, -3080, 14560, 1400, -436, -154, 235
43356, -533, 132, -1040, -2030, 16590, 1400, -430, -159, 240
43357, -201, 118, -784, 2100, -14910, -1610, -441, -148, 241
43358, -462, 118, -961, -1120, 16520, 1330, -445, -165, 234
43359, -303, 140, -961, 1820, -13440, -1190, -432, -145, 243
43360, -389, 168, -1033, 1680, -17010, -1470, -429, -159, 243
43361, -325, 153, -784, -2240, 16520, 1470, -435, -157, 241
43362, -368, 187, -1032, 1610, -17640, -1540, -429, -154, 241
43363, -309, 146, -779, -2100, 15400, 1260, -444, -159, 246
43364, -414, 184, -1041, 1470, -13090, -1190, -433, -160, 246
43365, -452, 168, -1067, 840, -6790, -560, -435, -162, 246
43366, -217, 111, -731, -210, 5880, 140, -435, -162, 247
43367, -512, 165, -1133, 140, -2940, -70, -435, -166, 235
43368, -193, 123, -707, -70, 2380, -140, -435, -160, 235
43369, -526, 170, -1148, -140, -2170, 70, -439, -156, 243
43370, -513, 177, -1105, -70, -420, 140, -427, -162, 234
43371, -186, 141, -729, 210, -700, -350, -442, -154, 243
43372, -521, 178, -1084, -420, 3080, 420, -439, -159, 228
43373, -181, 137, -759, 840, -4550, -770, -441, -157, 240
43374, -170, 131, -753, 1050, -7700, -980, -438, -159, 238
43375, -531, 153, -1080, -1260, 8540, 910, -430, -159, 240
43376, -187, 140, -767, 1120, -8540, -1050, -433, -169, 246
43377, -514, 153, -1057, -1190, 8120, 840, -430, -162, 232
43378, -201, 147, -789, 1050, -8260, -910, -439, -153, 234
43379, -229, 154, -835, 1120, -8540, -910, -435, -162, 240
43380, -467, 158, -983, -1190, 9800, 840, -433, -163, 240
43381, -246, 152, -860, 1190, -10010, -1120, -438, -156, 238
43382, -450, 147, -968, -1330, 10430, 910, -444, -156, 235
43383, -256, 148, -863, 1190, -10010, -1050, -432, -157, 240
43384, -284, 153, -881, 1050, -8400, -840, -436, -157, 231
43385, -409, 146, -940, -910, 7770, 630, -438, -156, 238
43386, -307, 157, -905, 770, -6930, -700, -436, -163, 232
43387, -378, 150, -906, -700, 7000, 490, -442, -159, 241
43388, -370, 149, -900, -770, 6930, 490, -439, -159, 240
43389, -340, 155, -933, 770, -6510, -630, -433, -153, 241
43390, -360, 144, -901, -700, 6020, 420, -438, -159, 246
43391, -345, 152, -925, 560, -5040, -490, -441, -163, 231
43392, -350, 145, -902, -560, 4410, 280, -436, -163, 240
43393, -333, 149, -889, -280, 2870, 70, -435, -156, 232
43394, -374, 155, -947, 210, -2240, -210, -435, -159, 240
43395, -322, 151, -878, -280, 2380, 70, -438, -151, 232
43396, -380, 154, -948, 210, -1960, -210, -432, -156, 235
43397, -326, 150, -886, -140, 2100, 70, -430, -162, 243
43398, -326, 148, -895, -140, 1190, 0, -436, -162, 235
43399, -378, 150, -935, 0, -280, -70, -432, -165, 238
43400, -322, 150, -894, 0, 210, -140, -438, -159, 234
43401, -384, 151, -938, 0, 280, -70, -433, -169, 238
43402, -381, 151, -936, -70, 210, -70, -430, -156, 234
43403, -323, 152, -895, 0, 0, -70, -430, -166, 246
43404, -374, 150, -929, 0, 420, 0, -436, -153, 235
43405, -332, 152, -904, 70, -280, -70, -438, -162, 246
43406, -372, 150, -925, -140, 840, 0, -430, -150, 241
43407, -372, 149, -923, -140, 1190, 0, -429, -163, 237
43408, -331, 152, -904, 70, -840, -140, -441, -150, 234
43409, -370, 149, -926, -140, 910, 0, -441, -165, 241
43410, -335, 153, -907, 70, -560, -70, -436, -157, 244
43411, -364, 150, -919, -140, 840, -140, -441, -151, 235
43412, -359, 150, -915, -70, 910, 0, -436, -153, 238
43413, -344, 151, -915, 140, -700, -140, -441, -157, 246
43414, -358, 149, -916, -70, 1050, -70, -438, -160, 241
43415, -345, 152, -914, 70, -700, -140, -441, -165, 234
43416, -347, 152, -915, 0, -490, -70, -442, -162, 244
43417, -353, 150, -913, -70, 560, 0, -424, -162, 241
43418, -351, 152, -916, 0, -280, -140, -435, -154, 240
43419, -350, 151, -910, -70, 630, -70, -426, -154, 243
43420, -353, 152, -918, 70, -210, -140, -442, -150, 243
43421, -354, 151, -919, 70, -210, -140, -441, -159, 243
43422, -348, 149, -911, -70, 490, -70, -430, -160, 232
43423, -356, 151, -919, 0, -140, -70, -438, -165, 238
43424, -346, 151, -910, -70, 350, -70, -436, -159, 238
43425, -356, 152, -919, 0, 350, -70, -436, -150, 252
43426, -357, 151, -920, 70, 70, -70, -439, -159, 241
43427, -346, 151, -911, 0, 280, -70, -439, -160, 243
43428, -357, 151, -919, 0, 70, -70, -435, -165, 234
43429, -346, 150, -911, 0, 280, -140, -436, -154, 240
43430, -346, 150, -911, 0, 140, -70, -433, -156, 241
43431, -357, 152, -917, 0, 210, -70, -433, -160, 240
43432, -346, 152, -911, 0, 70, 0, -435, -154, 243
43433, -357, 151, -918, -70, 210, -70, -436, -153, 247
43434, -346, 151, -911, 0, 70, -70, -435, -159, 241
43435, -348, 151, -912, -70, 70, -70, -430, -159, 238
43436, -356, 151, -917, 0, 280, -70, -450, -148, 240
43437, -347, 150, -912, 0, 0, -70, -436, -163, 243
43438, -355, 151, -916, 0, 280, -70, -442, -157, 246
43439, -347, 151, -913, 0, 280, -70, -435, -159, 238
43440, -348, 151, -913, 0, 70, -140, -435, -148, 244
43441, -354, 151, -916, -70, 350, -70, -426, -162, 237
43442, -349, 152, -913, 0, -70, -70, -429, -162, 246
43443, -354, 151, -916, -70, 210, -70, -427, -159, 241
43444, -354, 151, -915, 0, 280, -70, -435, -156, 240
43445, -350, 151, -914, 0, 70, -70, -439, -154, 243
43446, -353, 151, -915, 0, 350, -70, -433, -163, 238
43447, -350, 151, -914, 0, 70, -70, -435, -160, 246
43448, -353, 150, -914, 0, 350, -70, -436, -154, 243
43449, -352, 151, -914, -70, 280, -70, -433, -151, 234
43450, -351, 151, -916, 0, 70, -140, -424, -156, 237
43451, -352, 151, -914, 0, 210, -70, -430, -163, 247
43452, -351, 151, -914, -70, 0, -140, -438, -157, 229
43453, -352, 151, -915, 70, 70, -70, -432, -154, 247
43454, -352, 151, -916, 0, 210, -70, -429, -159, 241
43455, -351, 151, -914, 0, 70, -70, -435, -159, 241
43456, -352, 151, -914, 0, 210, -70, -430, -154, 244
43457, -352, 151, -915, 0, 140, -70, -435, -160, 241
43458, -351, 151, -916, 0, 70, -70, -436, -171, 249
43459, -351, 151, -915, 0, 140, -70, -439, -156, 250
43460, -352, 151, -915, 0, 70, -70, -435, -159, 249
43461, -352, 151, -914, 0, 210, -70, -432, -162, 243
43462, -351, 151, -914, -70, 70, 0, -435, -159, 238
43463, -352, 151, -915, 0, 140, -70, -436, -150, 247
43464, -351, 151, -915, 70, 210, 0, -430, -160, 238
43465, -352, 151, -915, 0, 70, -70, -433, -162, 244
43466, -351, 151, -914, 0, 70, -70, -432, -159, 247
43467, -352, 151, -915, 0, 210, -140, -444, -162, 249
43468, -351, 151, -915, 0, 140, -70, -439, -151, 243
43469, -351, 151, -915, 0, 140, 0, -442, -151, 241
43470, -353, 151, -916, 0, 210, -70, -438, -159, 231
43471, -351, 151, -914, 0, 140, -70, -447, -147, 237
43472, -351, 151, -914, 0, 140, -70, -441, -159, 237
43473, -352, 150, -915, 0, 210, -70, -444, -156, 246
43474, -350, 151, -915, 0, 140, -70, -429, -156, 243
43475, -351, 151, -914, 0, 210, -70, -426, -156, 244
43476, -351, 151, -914, 0, 210, -70, -439, -162, 249
43477, -351, 150, -914, 0, 140, -70, -439, -166, 244
43478, -352, 151, -915, 0, 210, -70, -430, -151, 240
43479, -351, 151, -915, -70, 140, -70, -436, -156, 243
43480, -352, 151, -914, 0, 140, 0, -429, -157, 244
43481, -351, 151, -915, 0, 140, -70, -435, -162, 244
43482, -352, 151, -915, 70, 140, -70, -435, -162, 243
43483, -352, 150, -915, 0, 140, -140, -441, -160, 250
43484, -352, 150, -914, 0, 140, -70, -435, -162, 240
43485, -352, 151, -914, 0, 210, -70, -430, -153, 235
43486, -351, 151, -915, -70, 210, -70, -430, -168, 240
43487, -351, 151, -915, 0, 210, -70, -432, -159, 247
43488, -352, 151, -915, 0, 210, -70, -432, -159, 237
43489, -351, 151, -915, 0, 210, -70, -438, -150, 243
43490, -351, 151, -914, 0, 210, -70, -435, -165, 237
43491, -352, 151, -915, 0, 210, -70, -442, -162, 241
43492, -351, 151, -915, 0, 140, -70, -424, -163, 246
43493, -352, 151, -915, -70, 140, -140, -441, -162, 246
43494, -352, 151, -915, 0, 140, -140, -441, -154, 229
43495, -351, 150, -915, 0, 140, -70, -435, -153, 247
43496, -351, 151, -915, -70, 140, -70, -423, -159, 244
43497, -352, 151, -915, 70, 70, -70, -439, -157, 243
43498, -351, 151, -914, 0, 210, -70, -426, -162, 228
43499, -352, 150, -915, 0, 140, -70, -435, -162, 235
43500, -351, 151, -915, 0, 210, -70, -438, -148, 247
43501, -351, 150, -915, 0, 140, -70, -432, -156, 243
43502, -351, 150, -914, 0, 210, -70, -436, -160, 238
43503, -352, 151, -914, 0, 210, -140, -430, -154, 247
43504, -352, 151, -915, 0, 210, -70, -438, -160, 238
43505, -351, 152, -914, 0, 140, -70, -432, -160, 226
43506, -352, 151, -914, 70, 140, -70, -429, -156, 235
43507, -351, 151, -916, 0, 140, -70, -435, -162, 241
43508, -352, 151, -915, 0, 140, -70, -435, -162, 246
43509, -352, 151, -914, 0, 140, -70, -441, -162, 241
43510, -351, 151, -914, 0, 140, -140, -433, -150, 244
43511, -351, 150, -914, 70, 140, -140, -438, -160, 243
43512, -352, 151, -915, 0, 210, -140, -435, -151, 246
43513, -352, 151, -914, -70, 210, -70, -433, -165, 247
43514, -352, 151, -914, 0, 210, -70, -435, -153, 240
43515, -352, 151, -915, 0, 210, 0, -436, -159, 238
43516, -352, 150, -915, -70, 140, -70, -432, -159, 246
43517, -351, 151, -915, 0, 140, -140, -436, -165, 243
43518, -351, 151, -915, -70, 210, -70, -424, -159, 241
43519, -351, 151, -916, 0, 140, -140, -436, -159, 244
43520, -352, 151, -915, 0, 140, -70, -435, -159, 244
43521, -351, 151, -914, 0, 210, -70, -427, -163, 244
43522, -351, 150, -915, -70, 140, -70, -439, -147, 244
43523, -351, 151, -912, 70, 140, -70, -432, -156, 240
43524, -350, 151, -915, 0, 140, -70, -426, -151, 237
43525, -358, 151, -922, 0, 280, -70, -432, -160, 240
43526, -350, 149, -912, 0, 0, -70, -435, -156, 238
43527, -350, 151, -914, -70, 140, -70, -429, -169, 243
43528, -355, 151, -916, 0, 140, -70, -438, -154, 237
43529, -352, 152, -916, 70, 210, -70, -429, -154, 237
43530, -352, 152, -915, 0, 210, -70, -438, -156, 235
43531, -350, 150, -911, 0, 210, -70, -427, -156, 234
43532, -352, 150, -915, 0, 140, -70, -441, -157, 240
43533, -354, 151, -917, 0, 210, -70, -429, -157, 234
43534, -352, 150, -913, 0, 140, -70, -432, -156, 243
43535, -352, 151, -914, 0, 140, -70, -435, -163, 241
43536, -351, 151, -915, 70, 140, -70, -430, -159, 240
43537, -354, 152, -915, 0, 210, -70, -436, -156, 234
43538, -353, 150, -915, 70, 140, -70, -438, -160, 240
43539, -351, 150, -914, 0, 140, -70, -439, -159, 241
43540, -351, 150, -915, 70, 140, -70, -424, -150, 234
43541, -351, 152, -914, 0, 140, -70, -435, -156, 240
43542, -352, 151, -914, 0, 140, -140, -438, -148, 247
43543, -351, 151, -914, 0, 140, -70, -438, -157, 235
43544, -350, 152, -914, 0, 140, -70, -439, -150, 243
43545, -351, 151, -915, 0, 140, -70, -430, -159, 235
43546, -352, 151, -914, 0, 140, -140, -435, -154, 237
43547, -352, 151, -915, 0, 210, -70, -432, -163, 237
43548, -352, 150, -914, 0, 210, -70, -436, -168, 240
43549, -352, 151, -914, 0, 140, -70, -436, -156, 238
43550, -352, 152, -914, 0, 210, -70, -435, -157, 234
43551, -350, 151, -916, 0, 140, -70, -438, -163, 243
43552, -351, 151, -915, -70, 210, -70, -430, -165, 241
43553, -352, 151, -915, 70, 140, -70, -430, -151, 247
43554, -352, 151, -915, 0, 140, -70, -424, -162, 243
43555, -351, 151, -913, 0, 140, -70, -432, -150, 243
43556, -351, 151, -914, 0, 140, -70, -433, -159, 240
43557, -352, 151, -915, 0, 140, -70, -432, -151, 243
43558, -351, 152, -914, 0, 140, -70, -441, -159, 232
43559, -353, 151, -915, 0, 140, -70, -436, -159, 241
43560, -353, 151, -914, 0, 140, -70, -429, -159, 235
43561, -352, 150, -914, 0, 140, -70, -436, -156, 238
43562, -353, 151, -915, 0, 140, -70, -432, -165, 231
43563, -352, 151, -915, 0, 140, -140, -435, -154, 244
43564, -352, 151, -914, 0, 140, -70, -429, -153, 235
43565, -351, 151, -914, 0, 210, -70, -439, -159, 238
43566, -351, 152, -915, 0, 140, -70, -433, -160, 241
43567, -352, 152, -915, 0, 140, -70, -442, -153, 243
43568, -352, 150, -915, 0, 70, -70, -435, -157, 241
43569, -352, 151, -915, 70, 140, -70, -438, -162, 237
43570, -352, 151, -915, -70, 140, -70, -435, -151, 241
43571, -352, 151, -914, 0, 70, -70, -435, -162, 235
43572, -351, 150, -914, 0, 140, -140, -438, -156, 225
43573, -352, 151, -914, 70, 210, -70, -442, -156, 238
43574, -352, 150, -914, 0, 140, -70, -433, -163, 237
43575, -351, 151, -916, 0, 140, -70, -433, -162, 238
43576, -352, 151, -914, 0, 210, -70, -427, -165, 244
43577, -351, 151, -915, 0, 140, -70, -432, -156, 234
43578, -352, 151, -914, 0, 140, -70, -432, -157, 235
43579, -352, 151, -913, 0, 140, -70, -430, -154, 232
43580, -352, 151, -914, -70, 210, -70, -435, -160, 235
43581, -352, 151, -915, 0, 210, -70, -436, -151, 234
43582, -351, 151, -915, 0, 210, -70, -439, -160, 240
43583, -352, 150, -915, -70, 210, -70, -444, -156, 243
43584, -352, 151, -915, 0, 140, -70, -432, -160, 241
43585, -351, 151, -914, 0, 140, -70, -436, -153, 238
43586, -352, 151, -915, -70, 140, -70, -429, -163, 228
43587, -351, 151, -915, 0, 210, -70, -438, -162, 240
43588, -352, 151, -914, 0, 140, -70, -429, -153, 238
43589, -352, 151, -915, 0, 140, -70, -439, -156, 241
43590, -351, 150, -916, 0, 70, -70, -430, -160, 226
43591, -352, 151, -914, 0, 140, -70, -429, -165, 241
43592, -352, 151, -914, 0, 210, -70, -435, -154, 235
43593, -351, 151, -916, -70, 140, -70, -436, -159, 235
43594, -352, 150, -915, 0, 140, -70, -432, -159, 243
43595, -351, 151, -915, 0, 140, -70, -436, -157, 252
43596, -352, 151, -915, -70, 210, -70, -442, -165, 238
43597, -352, 151, -914, 0, 140, -70, -439, -157, 240
43598, -352, 150, -914, 70, 140, -70, -439, -162, 235
43599, -352, 151, -915, 0, 210, -70, -430, -165, 223
43600, -351, 151, -914, 0, 210, -70, -442, -165, 244
43601, -353, 150, -913, 0, 210, -70, -442, -159, 243
43602, -350, 152, -919, 0, 140, -70, -438, -163, 240
43603, -354, 153, -923, 70, 280, -70, -433, -154, 241
43604, -354, 152, -918, 0, 280, -70, -442, -157, 231
43605, -349, 149, -908, -70, 70, -140, -435, -166, 241
43606, -350, 149, -912, -70, 140, -70, -424, -157, 235
43607, -355, 151, -915, 0, 280, -70, -439, -159, 244
43608, -351, 152, -912, 0, 210, 0, -439, -154, 241
43609, -349, 152, -913, 0, 210, -70, -438, -160, 238
43610, -350, 151, -915, 0, 210, -70, -439, -157, 250
43611, -353, 151, -919, 0, 70, -70, -435, -159, 250
43612, -352, 150, -912, 0, 70, -70, -441, -160, 235
43613, -352, 150, -913, -70, 210, -70, -442, -156, 232
43614, -349, 150, -915, 70, 140, -70, -433, -144, 235
43615, -352, 152, -915, 70, 280, -70, -436, -166, 240
43616, -352, 152, -915, 0, 140, -70, -427, -147, 247
43617, -351, 151, -915, -70, 140, -70, -442, -162, 241
43618, -351, 150, -914, 0, 140, -140, -442, -157, 223
43619, -352, 149, -913, 0, 140, -70, -445, -168, 240
43620, -352, 150, -913, 0, 140, -70, -439, -160, 243
43621, -352, 151, -915, 0, 140, -70, -438, -160, 241
43622, -351, 152, -914, 0, 140, -70, -421, -156, 234
43623, -351, 152, -914, 0, 210, -70, -439, -162, 234
43624, -352, 151, -914, 0, 210, -70, -438, -159, 238
43625, -352, 150, -915, 0, 140, -140, -426, -156, 238
43626, -352, 150, -914, 0, 140, -70, -436, -150, 246
43627, -352, 151, -914, 0, 140, -70, -436, -166, 247
43628, -352, 151, -915, 0, 140, -70, -433, -156, 234
43629, -351, 151, -914, 0, 210, -70, -430, -156, 247
43630, -351, 151, -914, 0, 70, -70, -438, -163, 243
43631, -352, 151, -914, -70, 210, -70, -438, -154, 240
43632, -352, 151, -915, 70, 140, -70, -430, -159, 237
43633, -352, 151, -915, 70, 210, -70, -430, -157, 249
43634, -351, 150, -915, 0, 210, -70, -430, -156, 234
43635, -351, 151, -915, -70, 140, 0, -432, -157, 238
43636, -352, 151, -913, 0, 140, -70, -439, -156, 241
43637, -351, 151, -915, 0, 140, -70, -430, -160, 241
43638, -352, 150, -914, 0, 210, -70, -438, -165, 246
43639, -352, 151, -915, 70, 140, -70, -442, -154, 243
43640, -352, 151, -915, -70, 210, -70, -436, -156, 237
43641, -352, 151, -915, 0, 210, -70, -432, -163, 229
43642, -352, 151, -914, 70, 140, -70, -429, -159, 241
43643, -352, 151, -914, 70, 140, -140, -433, -160, 247
43644, -352, 151, -915, 0, 210, -70, -441, -151, 244
43645, -351, 151, -915, 0, 210, -70, -438, -162, 241
43646, -351, 151, -915, 0, 140, -70, -429, -154, 234
43647, -352, 151, -914, 0, 210, -70, -435, -165, 234
43648, -352, 151, -914, 0, 140, -70, -435, -153, 238
43649, -352, 151, -914, -70, 70, -70, -439, -154, 240
43650, -352, 151, -915, 70, 140, -70, -438, -166, 234
43651, -352, 151, -914, 0, 140, 0, -436, -151, 244
43652, -352, 151, -914, 0, 210, -70, -438, -162, 241
43653, -352, 151, -915, 0, 70, -140, -430, -157, 244
43654, -351, 151, -915, 0, 210, -140, -439, -160, 240
43655, -352, 150, -915, -70, 210, -70, -430, -157, 246
43656, -351, 151, -914, -70, 210, -70, -432, -148, 238
43657, -351, 151, -915, 70, 140, -70, -435, -162, 243
43658, -352, 151, -915, 70, 210, -70, -432, -160, 232
43659, -352, 152, -915, 0, 140, -70, -438, -153, 246
43660, -352, 151, -914, 70, 140, -70, -433, -160, 240
43661, -351, 151, -914, 0, 210, -140, -433, -157, 240
43662, -351, 151, -917, 0, 210, -70, -433, -154, 238
43663, -352, 151, -915, 0, 140, -70, -436, -157, 243
43664, -351, 151, -915, 0, 210, -140, -435, -163, 241
43665, -351, 151, -915, 0, 140, -70, -429, -160, 241
43666, -353, 151, -915, 0, 210, -70, -435, -162, 231
43667, -352, 151, -915, 0, 210, -70, -432, -165, 238
43668, -352, 151, -914, 0, 210, -70, -429, -154, 241
43669, -352, 151, -915, 0, 210, -70, -433, -151, 237
43670, -351, 151, -915, 0, 210, -70, -438, -156, 235
43671, -352, 151, -915, 0, 210, -70, -435, -150, 235
43672, -352, 151, -914, 0, 210, -70, -436, -154, 235
43673, -352, 151, -914, -70, 210, -70, -441, -147, 240
43674, -351, 151, -914, 0, 70, -70, -429, -157, 237
43675, -352, 151, -914, -70, 140, -70, -430, -163, 237
43676, -352, 151, -914, 0, 70, -70, -432, -159, 241
43677, -352, 151, -915, 0, 210, -140, -438, -159, 231
43678, -351, 150, -914, 0, 140, -70, -432, -159, 241
43679, -352, 151, -914, 70, 210, -70, -435, -159, 246
43680, -352, 151, -915, 0, 210, -70, -432, -160, 234
43681, -352, 151, -915, 0, 210, -70, -432, -162, 241
43682, -352, 151, -915, 0, 140, -140, -436, -168, 244
43683, -352, 151, -915, 70, 210, -70, -436, -153, 241
43684, -352, 151, -913, 0, 140, -70, -435, -159, 234
43685, -352, 151, -915, 70, 210, -70, -429, -153, 237
43686, -352, 151, -916, 0, 210, -70, -441, -166, 234
43687, -353, 150, -915, 0, 210, -70, -441, -156, 241
43688, -352, 151, -915, 0, 140, -70, -432, -171, 243
43689, -352, 150, -914, 0, 140, -70, -444, -151, 241
43690, -352, 152, -915, 0, 140, -70, -435, -162, 235
43691, -352, 150, -914, 70, 210, -140, -435, -153, 246
43692, -352, 151, -915, 0, 140, -70, -424, -159, 246
43693, -352, 151, -915, -70, 140, -70, -435, -166, 241
43694, -351, 151, -914, 0, 140, -70, -436, -157, 243
43695, -352, 151, -914, 0, 140, -70, -436, -159, 243
43696, -352, 151, -914, 70, 140, -70, -438, -160, 238
43697, -352, 151, -915, 0, 140, -70, -436, -156, 234
43698, -352, 151, -915, 0, 70, -70, -430, -153, 244
43699, -352, 151, -914, 0, 210, -70, -433, -154, 240
43700, -352, 151, -915, -70, 140, -70, -432, -156, 243
43701, -352, 151, -914, -70, 210, -70, -436, -148, 240
43702, -352, 151, -916, 0, 210, -70, -426, -148, 234
43703, -352, 151, -915, 0, 140, -70, -429, -165, 228
43704, -353, 151, -915, -70, 140, -70, -438, -163, 234
43705, -352, 151, -916, 0, 140, -70, -435, -160, 231
43706, -352, 151, -915, 0, 210, -70, -441, -160, 240
43707, -352, 152, -915, 0, 140, 0, -438, -157, 238
43708, -352, 151, -914, -70, 210, -70, -433, -157, 237
43709, -352, 151, -914, 0, 140, -70, -435, -157, 249
43710, -352, 151, -914, 0, 140, -70, -435, -156, 246
43711, -352, 151, -914, 0, 210, -70, -424, -157, 237
43712, -352, 151, -913, 0, 210, -70, -441, -159, 226
43713, -352, 151, -915, 0, 210, -70, -438, -162, 238
43714, -352, 151, -915, -70, 140, -70, -439, -150, 237
43715, -352, 152, -915, 0, 140, -140, -436, -153, 237
43716, -352, 151, -914, 0, 140, -140, -430, -150, 235
43717, -351, 151, -915, 0, 140, -70, -432, -162, 243
43718, -351, 151, -914, 0, 140, -70, -432, -162, 244
43719, -353, 151, -915, 0, 210, -70, -442, -159, 240
43720, -352, 152, -914, 0, 210, -70, -435, -153, 234
43721, -352, 151, -915, 0, 140, -70, -435, -157, 247
43722, -352, 151, -915, 0, 140, -70, -435, -156, 234
43723, -352, 151, -915, 70, 140, -70, -432, -163, 246
43724, -352, 151, -915, -70, 140, -70, -432, -154, 231
43725, -351, 152, -915, -70, 210, -70, -432, -160, 249
43726, -352, 151, -915, 70, 140, -70, -438, -166, 241
43727, -352, 151, -914, 0, 140, -70, -438, -156, 246
43728, -352, 152, -914, 70, 70, -70, -436, -157, 240
43729, -353, 150, -914, 70, 140, -70, -436, -163, 243
43730, -352, 150, -915, 70, 140, -70, -426, -156, 241
43731, -352, 151, -914, 0, 140, -140, -432, -157, 234
43732, -352, 151, -914, 0, 140, -70, -436, -157, 241
43733, -352, 151, -914, 0, 140, -70, -436, -162, 238
43734, -351, 151, -915, 0, 140, -70, -441, -153, 244
43735, -352, 152, -914, 0, 140, -70, -439, -160, 234
43736, -352, 151, -915, 0, 140, -70, -439, -159, 232
43737, -351, 151, -915, 0, 140, -70, -436, -156, 241
43738, -352, 151, -915, 0, 210, -70, -433, -157, 238
43739, -351, 151, -915, 0, 210, -70, -429, -168, 240
43740, -351, 151, -915, 0, 140, -70, -436, -151, 232
43741, -352, 151, -915, 70, 140, -70, -427, -156, 243
43742, -353, 151, -915, 70, 70, -70, -436, -165, 243
43743, -352, 151, -915, 0, 210, 0, -427, -169, 240
43744, -351, 151, -915, 70, 140, -70, -435, -148, 238
43745, -352, 151, -915, 0, 210, -70, -438, -156, 244
43746, -352, 151, -914, 0, 210, -70, -442, -154, 240
43747, -352, 150, -914, 0, 210, -70, -438, -162, 243
43748, -352, 150, -915, -70, 140, -70, -433, -151, 241
43749, -352, 152, -915, 0, 70, -140, -427, -148, 243
43750, -352, 151, -915, 0, 140, -70, -430, -157, 250
43751, -352, 151, -914, 0, 140, -70, -436, -165, 238
43752, -352, 152, -915, 0, 140, -70, -429, -156, 237
43753, -352, 151, -915, 70, 210, -70, -432, -159, 240
43754, -352, 151, -914, 0, 140, -70, -433, -160, 235
43755, -351, 151, -915, 0, 210, -70, -444, -162, 241
43756, -352, 151, -915, 0, 210, -70, -442, -166, 238
43757, -352, 151, -915, 0, 140, -70, -439, -157, 243
43758, -352, 151, -914, 0, 140, -70, -433, -157, 238
43759, -352, 151, -915, 0, 210, -70, -438, -154, 244
43760, -352, 151, -915, 0, 210, -70, -432, -160, 238
43761, -352, 151, -915, -70, 210, -70, -430, -150, 235
43762, -352, 151, -915, 0, 210, -70, -432, -165, 238
43763, -351, 150, -914, 0, 140, -70, -438, -150, 232
43764, -352, 150, -914, -70, 140, 0, -435, -154, 238
43765, -352, 151, -915, -70, 210, -70, -433, -150, 240
43766, -351, 151, -914, 0, 210, -70, -426, -156, 237
43767, -352, 152, -915, 70, 140, -70, -435, -162, 240
43768, -352, 151, -915, 0, 140, -70, -432, -157, 231
43769, -352, 151, -915, -70, 140, 0, -432, -154, 241
43770, -351, 151, -914, 0, 210, -70, -427, -162, 243
43771, -353, 151, -914, 0, 210, -70, -442, -142, 235
43772, -352, 151, -915, 0, 140, -70, -436, -159, 234
43773, -352, 151, -914, 70, 210, -70, -430, -156, 238
43774, -352, 151, -915, 0, 140, -70, -424, -163, 240
43775, -351, 151, -914, 0, 140, -70, -441, -157, 241
43776, -352, 150, -915, 0, 140, -70, -438, -154, 244
43777, -352, 150, -915, -70, 210, -70, -433, -153, 238
43778, -351, 150, -914, 0, 70, -140, -438, -148, 234
43779, -351, 151, -914, 0, 210, -70, -429, -141, 235
43780, -353, 152, -915, 0, 140, -70, -439, -151, 244
43781, -352, 152, -915, 0, 140, -70, -439, -163, 235
43782, -352, 151, -914, 0, 140, -140, -436, -162, 241
43783, -351, 150, -913, -70, 210, -70, -438, -159, 238
43784, -353, 150, -915, 0, 210, -140, -439, -163, 229
43785, -351, 151, -915, 0, 140, -140, -430, -163, 244
43786, -352, 152, -914, 0, 210, -70, -433, -159, 241
43787, -351, 151, -914, 0, 140, -70, -435, -156, 234
43788, -351, 152, -915, 0, 140, -70, -441, -162, 235
43789, -352, 151, -915, 0, 70, -70, -438, -159, 244
43790, -352, 151, -915, 0, 140, -70, -432, -157, 238
43791, -352, 151, -915, 0, 140, -70, -433, -156, 238
43792, -352, 151, -915, 0, 140, -70, -442, -163, 231
43793, -352, 151, -914, -70, 140, -70, -436, -154, 243
43794, -353, 151, -914, 0, 210, -70, -439, -156, 231
43795, -352, 150, -914, 70, 210, -140, -435, -159, 243
43796, -353, 151, -914, 70, 140, -70, -433, -150, 246
43797, -352, 151, -915, 0, 210, -70, -436, -163, 229
43798, -352, 150, -915, 0, 140, -70, -427, -163, 234
43799, -351, 151, -914, 0, 140, -70, -435, -156, 244
43800, -352, 151, -914, 0, 140, -70, -427, -160, 235
43801, -353, 151, -915, 0, 140, -70, -441, -160, 237
43802, -352, 151, -915, 0, 140, -70, -430, -147, 238
43803, -351, 151, -915, 0, 210, -70, -436, -162, 247
43804, -351, 152, -914, -70, 140, -70, -430, -156, 234
43805, -352, 151, -914, 0, 140, -70, -438, -154, 246
43806, -352, 151, -915, 0, 210, -70, -439, -159, 234
43807, -352, 150, -915, 0, 210, -70, -438, -157, 243
43808, -351, 151, -914, 0, 140, -70, -435, -166, 240
43809, -352, 151, -913, 70, 210, -70, -433, -150, 247
43810, -351, 151, -915, -70, 210, -70, -436, -159, 244
43811, -352, 151, -914, -70, 210, -70, -444, -151, 241
43812, -351, 151, -914, 0, 140, -140, -430, -162, 241
43813, -352, 151, -915, 0, 210, -70, -436, -163, 241
43814, -352, 152, -914, 0, 140, -70, -436, -157, 238
43815, -352, 151, -914, 70, 210, -70, -438, -163, 243
43816, -351, 151, -916, 70, 140, 0, -436, -156, 237
43817, -351, 151, -915, 0, 140, -70, -444, -162, 237
43818, -352, 151, -915, -70, 210, -140, -436, -165, 238
43819, -352, 151, -914, 0, 210, -70, -439, -157, 237
43820, -352, 151, -914, 70, 140, -140, -435, -159, 243
43821, -352, 151, -914, 0, 210, -70, -442, -162, 241
43822, -353, 151, -915, 0, 140, -70, -432, -148, 253
43823, -352, 151, -914, 0, 210, -70, -433, -154, 243
43824, -352, 151, -914, 0, 140, -70, -447, -156, 231
43825, -352, 151, -914, 0, 140, -70, -439, -169, 238
43826, -352, 151, -914, 0, 210, -70, -432, -160, 237
43827, -352, 151, -915, 0, 210, -140, -444, -154, 246
43828, -352, 150, -915, -70, 140, 0, -427, -159, 234
43829, -352, 151, -914, 0, 140, -70, -439, -156, 243
43830, -352, 151, -915, 70, 70, -140, -435, -148, 243
43831, -351, 150, -915, -70, 210, -70, -433, -159, 235
43832, -352, 151, -915, 70, 210, -70, -426, -157, 231
43833, -352, 151, -915, 0, 210, -70, -438, -159, 238
43834, -352, 151, -915, 0, 140, -70, -429, -160, 243
43835, -353, 151, -914, 0, 140, -140, -429, -165, 237
43836, -352, 151, -914, 0, 140, -70, -439, -156, 250
43837, -352, 150, -915, 0, 210, -70, -438, -163, 240
43838, -351, 151, -914, 70, 140, -70, -441, -153, 238
43839, -352, 151, -915, 0, 210, -70, -439, -159, 243
43840, -352, 151, -914, 0, 210, -70, -438, -163, 237
43841, -352, 150, -914, 0, 140, -70, -441, -166, 235
43842, -352, 151, -915, 0, 140, -70, -432, -151, 234
43843, -352, 151, -914, 0, 70, -70, -439, -163, 243
43844, -352, 151, -916, 0, 140, -70, -435, -154, 231
43845, -340, 146, -916, 70, 0, -70, -438, -156, 243
43846, -361, 142, -895, 280, 1820, 70, -430, -163, 240
43847, -342, 150, -909, 560, 0, -70, -436, -163, 237
43848, -369, 155, -930, 280, 2450, 140, -436, -156, 237
43849, -370, 155, -930, 70, 1050, 0, -433, -159, 244
43850, -340, 157, -918, 0, -560, -140, -442, -157, 241
43851, -358, 155, -925, -350, 140, -70, -439, -160, 238
43852, -344, 151, -907, -280, -560, -140, -442, -156, 240
43853, -360, 147, -916, -210, -490, -140, -436, -159, 232
43854, -350, 149, -911, 70, -140, -140, -438, -151, 246
43855, -358, 150, -917, 0, 630, 0, -429, -160, 240
43856, -348, 153, -918, -70, -280, -70, -439, -160, 252
43857, -353, 153, -921, -140, 0, -70, -441, -156, 237
43858, -355, 150, -914, -210, -420, -70, -432, -160, 238
43859, -348, 150, -911, -140, 70, -70, -439, -160, 235
43860, -351, 149, -913, 0, 0, -140, -438, -162, 244
43861, -353, 149, -913, 70, 350, -70, -441, -156, 241
43862, -351, 151, -915, 0, 140, -70, -442, -150, 235
43863, -352, 151, -917, 0, 140, -70, -439, -156, 238
43864, -354, 151, -915, 0, 210, -70, -435, -165, 237
43865, -350, 150, -912, -70, -70, -70, -442, -154, 240
43866, -352, 151, -914, 70, 140, -70, -441, -172, 231
43867, -352, 150, -912, 70, 140, -70, -433, -156, 237
43868, -351, 152, -915, 0, 280, -70, -436, -156, 237
43869, -352, 151, -915, 0, 210, -70, -432, -166, 234
43870, -352, 151, -915, 0, 140, -70, -429, -153, 243
43871, -351, 150, -915, 0, 140, -70, -430, -157, 249
43872, -351, 152, -913, 0, 210, -70, -433, -153, 238
43873, -350, 152, -911, 140, 350, -70, -438, -162, 238
43874, -352, 151, -914, 70, 350, -70, -433, -150, 243
43875, -353, 151, -915, 140, 420, -70, -432, -157, 243
43876, -351, 150, -914, 140, 350, -70, -435, -157, 235
43877, -351, 150, -914, 70, 350, -70, -429, -151, 240
43878, -351, 151, -915, 70, 420, -70, -430, -163, 235
43879, -352, 152, -915, 70, 420, -70, -439, -154, 237
43880, -351, 152, -914, 140, 420, -70, -433, -159, 237
43881, -351, 152, -915, 70, 350, -70, -435, -157, 241
43882, -352, 151, -915, 140, 350, -70, -436, -163, 229
43883, -353, 148, -917, 70, 350, -70, -427, -159, 246
43884, -359, 138, -914, 70, 420, 0, -439, -157, 238
43885, -357, 159, -923, -140, -490, -140, -430, -159, 244
43886, -352, 155, -918, -770, -630, -140, -432, -153, 244
43887, -342, 148, -894, -630, -1470, -280, -438, -159, 240
43888, -360, 147, -915, -420, -1470, -210, -439, -175, 232
43889, -354, 149, -913, -490, -630, -140, -439, -150, 240
43890, -362, 150, -926, -560, -1400, -210, -441, -154, 231
43891, -354, 148, -923, -1120, -2940, -280, -438, -156, 240
43892, -354, 152, -923, -1400, -3710, -280, -436, -163, 235
43893, -363, 157, -930, -1750, -4690, -280, -436, -163, 246
43894, -354, 161, -926, -2170, -5600, -420, -430, -147, 241
43895, -349, 159, -924, -2380, -6720, -420, -439, -154, 240
43896, -352, 154, -913, -2730, -7140, -420, -439, -154, 235
43897, -357, 153, -916, -2940, -7420, -420, -436, -156, 244
43898, -358, 153, -921, -3010, -7980, -350, -430, -153, 232
43899, -363, 152, -925, -3220, -8400, -280, -433, -157, 238
43900, -376, 154, -927, -3850, -9870, -140, -429, -156, 229
43901, -374, 155, -934, -4410, -11340, 0, -435, -156, 237
43902, -372, 149, -934, -4970, -12320, 140, -433, -157, 231
43903, -376, 144, -929, -5460, -13020, 350, -432, -151, 249
43904, -369, 139, -926, -5740, -14840, 420, -420, -151, 231
43905, -369, 145, -916, -6440, -16450, 420, -432, -153, 249
43906, -369, 154, -925, -6930, -17360, 420, -421, -154, 235
43907, -353, 160, -914, -7280, -18270, 420, -420, -162, 229
43908, -363, 164, -920, -7560, -19320, 350, -418, -156, 241
43909, -359, 164, -909, -7840, -21420, 210, -439, -157, 240
43910, -360, 167, -901, -8470, -22890, 0, -429, -150, 238
43911, -368, 171, -898, -8750, -23450, -70, -424, -157, 234
43912, -374, 173, -901, -8960, -25410, -280, -421, -156, 244
43913, -375, 176, -904, -9450, -26320, -350, -424, -148, 235
43914, -402, 196, -906, -10080, -29120, -770, -418, -147, 241
43915, -414, 202, -898, -10850, -30450, -840, -415, -151, 226
43916, -396, 204, -884, -11410, -33810, -1190, -423, -142, 238
43917, -392, 206, -886, -12180, -35140, -1330, -420, -156, 244
43918, -392, 207, -889, -12810, -36890, -1610, -409, -150, 238
43919, -404, 195, -893, -13230, -37940, -1890, -406, -142, 238
43920, -417, 183, -883, -13300, -37940, -1890, -406, -151, 235
43921, -448, 177, -876, -13510, -38780, -1890, -412, -150, 241
43922, -459, 175, -878, -13790, -41650, -1960, -408, -151, 238
43923, -424, 175, -864, -14490, -42070, -1820, -403, -147, 222
43924, -444, 184, -906, -14770, -43610, -1820, -394, -138, 232
43925, -457, 175, -885, -15470, -46200, -2030, -393, -148, 240
43926, -483, 179, -870, -16520, -49280, -2170, -393, -141, 231
43927, -448, 189, -868, -17430, -53690, -2380, -394, -133, 235
43928, -465, 203, -866, -18340, -55160, -2240, -405, -148, 228
43929, -511, 201, -858, -18830, -54390, -2240, -394, -142, 235
43930, -488, 196, -832, -18970, -58240, -2520, -394, -148, 231
43931, -499, 202, -839, -19460, -55930, -2380, -378, -142, 219
43932, -474, 189, -824, -19250, -59290, -2660, -382, -141, 235
43933, -550, 179, -813, -19670, -61110, -2730, -376, -138, 234
43934, -587, 197, -837, -20860, -57890, -2450, -367, -135, 226
43935, -540, 200, -790, -20440, -64820, -3010, -370, -144, 222
43936, -574, 212, -816, -21420, -61110, -2590, -366, -136, 225
43937, -568, 222, -752, -21840, -63560, -2520, -373, -130, 228
43938, -594, 250, -769, -21770, -62930, -2310, -363, -127, 216
43939, -694, 243, -705, -21700, -58520, -1540, -367, -127, 216
43940, -716, 289, -681, -20370, -58240, -1050, -355, -127, 222
43941, -703, 330, -684, -19040, -53620, 140, -346, -124, 219
43942, -697, 310, -661, -16170, -42700, 1470, -343, -123, 223
43943, -777, 304, -667, -16590, -35490, 2240, -345, -127, 214
43944, -768, 286, -685, -16520, -42910, 2380, -349, -123, 208
43945, -679, 291, -655, -17570, -37310, 3570, -354, -132, 219
43946, -683, 300, -760, -17500, -42350, 4060, -351, -126, 214
43947, -813, 325, -800, -21070, -53690, 5110, -337, -130, 216
43948, -691, 293, -729, -24710, -60410, 5670, -345, -123, 214
43949, -524, 293, -663, -25900, -65240, 6160, -336, -121, 211
43950, -592, 313, -738, -26880, -57750, 6930, -333, -118, 204
43951, -746, 337, -759, -27160, -67900, 6160, -343, -117, 202
43952, -579, 260, -620, -27090, -74200, 5390, -328, -114, 211
43953, -628, 273, -600, -28350, -64610, 5740, -327, -117, 202
43954, -639, 271, -611, -28000, -79170, 4200, -313, -103, 198
43955, -694, 276, -605, -30030, -74620, 4410, -319, -106, 193
43956, -755, 306, -615, -30240, -78960, 4200, -313, -102, 190
43957, -768, 300, -623, -29540, -96250, 3150, -309, -111, 189
43958, -721, 276, -564, -30450, -97510, 3080, -310, -102, 177
43959, -639, 268, -548, -29820, -101850, 2730, -304, -103, 180
43960, -788, 290, -641, -30590, -97510, 3290, -306, -96, 180
43961, -683, 271, -575, -30590, -106750, 2100, -288, -102, 180
43962, -778, 309, -582, -30310, -101640, 1960, -291, -91, 168
43963, -1125, 344, -621, -31850, -107730, 1960, -288, -102, 157
43964, -816, 207, -386, -31150, -136360, 420, -277, -91, 156
43965, -839, 185, -480, -31430, -142940, 700, -276, -96, 142
43966, -765, 199, -537, -32900, -128660, 2100, -276, -88, 141
43967, -780, 214, -524, -30450, -138180, 1260, -258, -96, 135
43968, -809, 193, -630, -29260, -127890, 1400, -270, -85, 114
43969, -655, 205, -729, -21700, -103250, 280, -259, -91, 117
43970, -1490, 257, -704, -7210, -35140, 0, -253, -94, 111
43971, -670, 305, -194, -6860, -63840, -2100, -244, -81, 114
43972, -1260, 340, -764, -14140, -45010, 3570, -246, -84, 105
43973, -475, 199, 61, -9170, -88970, 770, -247, -82, 103
43974, -1144, 237, -619, -14140, -45010, 5880, -247, -88, 93
43975, -1042, 375, -750, -9590, -24780, 6650, -244, -81, 93
43976, -588, 373, -155, -6090, -49560, 3710, -243, -82, 90
43977, -992, 387, -494, -9030, -32550, 4970, -249, -91, 100
43978, -610, 402, -207, -7350, -41370, 3500, -244, -94, 82
43979, -682, 356, -255, -6510, -26110, 3500, -240, -78, 94
43980, -772, 316, -270, -5110, -24360, 2380, -240, -85, 81
43981, -774, 324, -306, -5040, -19460, 1750, -240, -75, 87
43982, -782, 346, -353, -3990, -21490, 280, -240, -84, 84
43983, -834, 341, -366, -3990, -20090, -700, -238, -75, 82
43984, -812, 334, -283, -2730, -21490, -3290, -241, -81, 85
43985, -748, 330, -284, -1750, -20020, -4340, -241, -87, 79
43986, -776, 333, -331, -980, -17080, -5180, -228, -85, 72
43987, -748, 306, -269, -140, -14770, -6230, -243, -85, 81
43988, -781, 326, -293, 490, -11200, -7140, -231, -82, 79
43989, -833, 363, -336, 1540, -6580, -8890, -234, -91, 82
43990, -852, 343, -298, 1890, -8330, -9660, -238, -94, 73
43991, -894, 340, -312, 1750, -7910, -10010, -231, -88, 69
43992, -880, 324, -325, 1960, -9240, -9940, -226, -84, 75
43993, -1204, 362, -398, 490, 20300, -1470, -232, -85, 76
43994, -1342, 238, -492, 1050, 770, 1190, -235, -85, 70
43995, -846, 137, -287, 1120, -3990, 1680, -241, -84, 66
43996, -820, 290, -361, 350, 1960, 1680, -235, -79, 73
43997, -806, 443, -289, 350, 1750, 980, -238, -90, 70
43998, -875, 336, -289, 210, 4830, 700, -235, -96, 69
43999, -939, 249, -333, 630, 2660, 980, -238, -96, 64
44000, -1039, 265, -380, 0, 5320, 2380, -231, -79, 70
44001, -1039, 312, -378, 140, -560, 3500, -231, -94, 76
44002, -1074, 323, -396, -1190, 350, 5810, -229, -84, 73
44003, -1016, 316, -397, -2730, -4130, 10080, -228, -81, 73
44004, -1055, 343, -398, -4690, -280, 12460, -234, -79, 66
44005, -1039, 353, -411, -5250, -7280, 14280, -237, -84, 72
44006, -1030, 352, -384, -6650, -2100, 17010, -232, -76, 72
44007, -959, 351, -358, -7700, -1260, 20580, -235, -79, 76
44008, -910, 349, -329, -7770, -2590, 21490, -234, -82, 67
44009, -914, 340, -336, -8260, -560, 22260, -238, -87, 76
44010, -876, 346, -313, -8330, -840, 22400, -228, -79, 79
44011, -872, 348, -324, -8330, -1610, 22190, -238, -76, 82
44012, -847, 361, -306, -8120, -3150, 21140, -231, -79, 78
44013, -843, 368, -309, -8260, -3010, 20370, -231, -73, 76
44014, -818, 367, -299, -7980, -5390, 19180, -229, -66, 76
44015, -816, 379, -311, -7910, -5250, 18270, -225, -70, 70
44016, -791, 377, -282, -7560, -5810, 17080, -240, -63, 75
44017, -778, 374, -265, -6650, -4760, 14770, -241, -67, 75
44018, -770, 378, -261, -5950, -4340, 13510, -234, -73, 70
44019, -779, 374, -264, -5250, -3360, 12320, -241, -66, 75
44020, -774, 377, -256, -4620, -2730, 10990, -225, -63, 82
44021, -785, 386, -274, -3500, -2660, 8400, -226, -61, 79
44022, -789, 395, -287, -3080, -3780, 6930, -231, -58, 78
44023, -787, 403, -285, -2940, -3360, 5670, -234, -57, 88
44024, -791, 405, -280, -2590, -4130, 4410, -240, -63, 76
44025, -804, 398, -277, -2380, -3430, 3430, -228, -58, 79
44026, -839, 376, -275, -1540, -2730, 2240, -228, -70, 84
44027, -857, 376, -286, -1190, -2030, 1960, -241, -67, 87
44028, -860, 376, -287, -770, -1750, 1960, -229, -58, 82
44029, -886, 387, -307, -700, -630, 2170, -240, -57, 78
44030, -887, 391, -309, -630, -350, 2730, -231, -54, 78
44031, -888, 394, -316, -1050, -140, 3080, -229, -61, 76
44032, -892, 398, -321, -1330, -140, 3360, -229, -61, 76
44033, -889, 397, -318, -1680, -910, 3500, -232, -60, 75
44034, -882, 404, -317, -1890, -1680, 3430, -238, -60, 72
44035, -887, 403, -302, -2380, -3920, 3150, -229, -63, 78
44036, -894, 398, -294, -2520, -6020, 2940, -231, -60, 76
44037, -906, 397, -300, -2730, -7700, 2870, -223, -54, 78
44038, -901, 391, -290, -2940, -9660, 2870, -225, -55, 66
44039, -903, 390, -295, -3220, -10920, 2940, -228, -64, 73
44040, -882, 400, -302, -3570, -13860, 3010, -225, -58, 73
44041, -867, 404, -294, -3710, -14350, 2940, -217, -60, 69
44042, -857, 406, -283, -3780, -14070, 2800, -231, -52, 66
44043, -857, 405, -281, -3710, -14070, 2730, -234, -61, 69
44044, -830, 400, -277, -3080, -10150, 2380, -226, -52, 70
44045, -889, 391, -290, -2800, -11130, 2240, -225, -61, 70
44046, -838, 382, -259, -2380, -9660, 2380, -234, -60, 69
44047, -871, 382, -282, -2030, -7770, 2590, -232, -64, 67
44048, -860, 391, -266, -1890, -6650, 2590, -225, -51, 72
44049, -914, 438, -295, -2940, -9240, 1960, -222, -51, 61
44050, -918, 451, -307, -3640, -17010, 910, -231, -49, 63
44051, -883, 452, -277, -4690, -19740, 210, -229, -49, 57
44052, -868, 442, -243, -4900, -24080, -700, -226, -54, 64
44053, -878, 426, -241, -5180, -26460, -1400, -228, -58, 64
44054, -884, 407, -234, -5110, -30240, -2660, -220, -51, 60
44055, -880, 392, -233, -5250, -32480, -3150, -222, -49, 55
44056, -858, 377, -241, -5180, -33880, -3640, -229, -52, 55
44057, -861, 380, -248, -5040, -32410, -3850, -225, -61, 43
44058, -862, 394, -246, -5390, -34300, -4410, -217, -48, 49
44059, -843, 414, -205, -5670, -35000, -4690, -214, -58, 40
44060, -952, 425, -231, -6090, -37730, -5040, -217, -51, 43
44061, -902, 427, -197, -6930, -42280, -5530, -220, -49, 37
44062, -935, 422, -226, -7280, -47670, -6370, -219, -52, 42
44063, -882, 393, -212, -7770, -52710, -7770, -205, -54, 37
44064, -881, 385, -222, -7630, -50890, -7980, -205, -48, 31
44065, -871, 395, -170, -7490, -47950, -7980, -207, -57, 27
44066, -930, 383, -181, -7420, -54320, -8820, -211, -54, 27
44067, -855, 392, -145, -8120, -48790, -8960, -204, -57, 15
44068, -873, 398, -162, -7140, -52640, -10640, -213, -51, 18
44069, -879, 376, -128, -7560, -52360, -11130, -205, -61, 13
44070, -740, 362, -77, -7000, -57260, -12320, -204, -57, 1
44071, -807, 377, -170, -6650, -47530, -12390, -202, -58, 0
44072, -770, 381, -120, -4270, -37730, -13580, -201, -66, -10
44073, -767, 359, -93, -3570, -28210, -13720, -198, -54, -4
44074, -765, 354, -85, -2240, -24570, -14350, -207, -61, -13
44075, -787, 351, -100, -1120, -18480, -14770, -202, -52, -13
44076, -800, 346, -67, -140, -13090, -15260, -199, -66, -13
44077, -817, 351, -91, 2170, -3990, -16310, -199, -60, -10
44078, -816, 368, -92, 3010, 560, -16800, -201, -63, -12
44079, -841, 378, -104, 3570, 3430, -17290, -198, -66, -13
44080, -863, 378, -98, 3710, 6370, -17710, -201, -75, -13
44081, -867, 375, -100, 3850, 6020, -18550, -199, -72, -18
44082, -876, 362, -110, 3990, 6370, -20020, -202, -70, -16
44083, -890, 351, -111, 4060, 6370, -20790, -202, -63, -1
44084, -879, 343, -91, 4200, 6370, -21630, -193, -75, -4
44085, -887, 347, -106, 4410, 5950, -22400, -201, -70, -9
44086, -900, 348, -120, 4410, 6230, -23380, -208, -88, -18
44087, -942, 337, -120, 4410, 6230, -23450, -205, -78, -16
44088, -957, 332, -122, 4410, 6160, -23310, -207, -87, -13
44089, -970, 325, -132, 4410, 5880, -22890, -210, -78, -9
44090, -982, 326, -128, 4410, 7630, -21910, -213, -79, -12
44091, -2137, 454, -39, -2100, 53620, 0, -213, -91, -7
44092, -1961, -74, -1059, 8330, -21910, 7630, -208, -87, -19
44093, 325, 74, 1129, 5670, 9450, -280, -198, -82, -4
44094, -1622, 311, -1348, 210, 18970, 1120, -204, -88, -16
44095, -252, 752, 821, 1820, 1050, -350, -210, -87, -12
44096, -297, 330, 658, 1050, -15680, -2030, -198, -84, -12
44097, -1360, 232, -606, -2380, 2870, -840, -201, -82, -13
44098, -712, 289, 156, -420, -5460, 70, -208, -88, -12
44099, -1082, 313, -254, 210, -280, 210, -195, -82, -7
44100, -962, 380, -181, 70, 5180, 210, -205, -85, -9
44101, -902, 329, -106, 770, -1330, -420, -199, -93, -12
44102, -1062, 320, -216, -490, 5110, 350, -207, -90, -12
44103, -863, 302, -60, 700, -5040, -420, -199, -76, -15
44104, -979, 355, -197, -350, 2800, 350, -202, -87, -13
44105, -986, 320, -187, 350, 630, -140, -201, -88, -9
44106, -909, 304, -77, 140, 3710, 350, -199, -85, -18
44107, -967, 342, -181, 700, -1400, -210, -210, -87, -13
44108, -932, 331, -119, -210, 3710, 350, -207, -85, -3
44109, -921, 340, -133, 420, -2170, -350, -211, -88, -7
44110, -921, 327, -104, 210, -560, -140, -198, -79, -9
44111, -942, 318, -144, 210, 140, -70, -199, -75, -13
44112, -923, 327, -110, 140, 2240, 70, -205, -87, -10
44113, -933, 334, -138, 560, -140, -140, -201, -84, -12
44114, -924, 324, -125, 560, -210, -140, -201, -84, -4
44115, -954, 325, -150, 140, 2100, 140, -214, -88, -12
44116, -927, 340, -130, 350, 490, 0, -205, -90, -10
44117, -946, 330, -136, 210, 700, 0, -201, -81, -9
44118, -939, 338, -140, 70, 490, -70, -205, -79, -15
44119, -937, 330, -138, 0, 210, 0, -198, -88, -13
44120, -928, 320, -118, 70, 210, 0, -210, -84, -7
44121, -936, 339, -141, 140, 700, 0, -211, -85, 3
44122, -935, 326, -127, 70, 630, -70, -207, -79, -15
44123, -950, 333, -151, 70, 280, -140, -205, -88, -10
44124, -936, 336, -139, 0, 0, -140, -198, -85, -4
44125, -929, 325, -123, 70, 560, 0, -202, -82, -4
44126, -937, 332, -139, 140, 420, -70, -208, -76, -18
44127, -938, 322, -127, 70, 630, 0, -201, -79, -18
44128, -934, 327, -129, 140, 280, -70, -207, -90, -9
44129, -943, 335, -142, 0, 490, 0, -204, -87, -24
44130, -933, 327, -129, 0, 70, -70, -208, -90, -10
44131, -941, 331, -137, 0, 280, -70, -207, -81, -4
44132, -934, 325, -129, 70, 280, -70, -196, -82, -10
44133, -932, 328, -131, 140, 280, -70, -202, -85, -12
44134, -939, 330, -135, 70, 700, -70, -204, -79, -6
44135, -934, 328, -132, 70, 280, -70, -214, -85, -7
44136, -937, 327, -132, 70, 630, 0, -208, -84, -12
44137, -933, 328, -132, 210, 490, -70, -195, -82, -7
44138, -936, 331, -135, 210, 770, -70, -216, -84, -7
44139, -938, 328, -134, 210, 840, 0, -199, -75, -15
44140, -944, 333, -141, 140, 630, 0, -210, -81, -4
44141, -940, 330, -137, 0, 210, -70, -207, -85, -7
44142, -942, 326, -130, 0, 210, -70, -205, -82, -7
44143, -933, 330, -136, 0, -210, -140, -199, -91, -9
44144, -937, 326, -131, -70, 280, -70, -208, -81, -12
44145, -940, 330, -136, 0, 70, -70, -205, -82, -1
44146, -934, 327, -133, 0, 70, -70, -205, -78, -4
44147, -935, 323, -129, 0, -70, -140, -204, -85, -10
44148, -936, 330, -134, 0, 420, -70, -210, -78, -12
44149, -936, 328, -130, 140, 280, -70, -204, -85, -1
44150, -937, 329, -136, 70, 280, -70, -210, -69, -13
44151, -936, 328, -132, 70, 140, -140, -208, -79, -7
44152, -938, 328, -132, 0, 770, 0, -210, -81, -7
44153, -935, 328, -131, 210, 210, -70, -211, -94, -7
44154, -937, 327, -132, 140, 840, 0, -205, -84, -7
44155, -934, 331, -132, 210, 910, 0, -204, -91, 0
44156, -938, 325, -135, 210, 910, 0, -204, -81, -4
44157, -934, 327, -129, 210, 910, 0, -199, -90, -12
44158, -935, 330, -133, 350, 1120, 0, -201, -82, -12
44159, -937, 331, -137, 280, 1050, 0, -202, -84, -9
44160, -940, 330, -138, 280, 1050, 0, -207, -78, -9
44161, -940, 332, -136, 70, 630, 0, -196, -81, -12
44162, -939, 332, -140, 140, 280, -70, -207, -75, -13
44163, -937, 329, -135, 70, 350, -70, -196, -81, -6
44164, -938, 329, -137, 70, 140, -70, -208, -88, -4
44165, -938, 330, -136, -70, 0, -70, -204, -87, -15
44166, -937, 327, -134, -70, 70, -70, -207, -82, -3
44167, -934, 329, -133, 0, 0, -140, -213, -82, -12
44168, -936, 329, -134, 0, 280, -70, -202, -78, -6
44169, -939, 329, -137, 0, 280, -70, -204, -87, -12
44170, -940, 333, -141, -140, -70, -70, -211, -81, -13
44171, -941, 331, -138, -210, -210, -70, -202, -87, -10
44172, -943, 331, -142, -210, -630, -140, -199, -82, -12
44173, -946, 334, -143, -420, -1190, -140, -211, -84, -3
44174, -948, 340, -149, -700, -1960, -210, -204, -81, -18
44175, -940, 333, -141, -1120, -3430, -350, -208, -88, -10
44176, -928, 322, -123, -980, -3360, -350, -202, -78, -10
44177, -917, 314, -107, -630, -2100, -280, -202, -87, -15
44178, -916, 310, -102, -140, -350, -70, -204, -84, -12
44179, -921, 318, -111, 630, 2240, 140, -205, -81, -4
44180, -942, 320, -135, 630, 2380, 210, -195, -78, -13
44181, -952, 332, -146, 560, 2030, 280, -213, -76, -7
44182, -937, 339, -141, 420, 1330, 210, -207, -81, -10
44183, -945, 331, -143, 350, 1190, 210, -207, -79, -19
44184, -946, 329, -140, 140, 420, 280, -204, -79, -13
44185, -948, 330, -139, 70, 980, 420, -205, -84, -7
44186, -948, 328, -138, 0, 420, 490, -205, -78, -15
44187, -954, 329, -142, -70, 770, 770, -201, -85, -12
44188, -951, 334, -142, -70, 840, 1190, -202, -93, -9
44189, -978, 335, -140, -490, 2030, 2310, -201, -81, -6
44190, -999, 330, -148, -700, 1260, 2940, -199, -87, -13
44191, -1005, 325, -150, -770, 350, 3710, -199, -87, -12
44192, -996, 320, -143, -770, -630, 4410, -199, -82, -12
44193, -986, 325, -141, -980, -700, 5950, -210, -82, -3
44194, -981, 334, -146, -1190, -350, 6720, -205, -81, -9
44195, -981, 333, -146, -1330, -490, 7420, -208, -85, -10
44196, -985, 334, -146, -1540, -490, 8050, -201, -84, -9
44197, -983, 334, -143, -1610, -1190, 8750, -211, -82, -6
44198, -978, 335, -138, -1960, -1610, 10010, -199, -76, -4
44199, -980, 335, -140, -1960, -1610, 10640, -211, -79, -7
44200, -983, 335, -140, -1960, -1610, 11410, -201, -73, -10
44201, -979, 337, -139, -2170, -1680, 12110, -204, -64, -12
44202, -981, 341, -143, -2240, -1750, 12810, -205, -69, -7
44203, -977, 347, -143, -2590, -2030, 14210, -204, -73, -9
44204, -976, 348, -142, -2730, -2030, 14910, -196, -79, -4
44205, -974, 349, -141, -2870, -2520, 15540, -201, -70, -1
44206, -976, 352, -140, -3010, -2450, 16170, -225, -70, -12
44207, -973, 353, -140, -3220, -3080, 17430, -204, -75, 3
44208, -965, 357, -136, -3360, -3430, 17990, -198, -67, -4
44209, -959, 360, -137, -3570, -3500, 18550, -211, -67, -1
44210, -953, 362, -131, -3500, -3360, 19040, -205, -60, -9
44211, -960, 366, -133, -3710, -3570, 19530, -204, -61, -3
44212, -979, 368, -135, -3850, -4060, 20860, -205, -63, -7
44213, -980, 369, -135, -3920, -4340, 21630, -211, -51, -4
44214, -986, 371, -137, -4130, -4410, 22610, -204, -61, -6
44215, -992, 376, -139, -4340, -4620, 23590, -213, -58, -10
44216, -991, 380, -141, -4550, -5040, 24570, -201, -57, -3
44217, -984, 390, -142, -5180, -5950, 26530, -216, -54, -6
44218, -979, 393, -137, -5390, -6300, 27510, -208, -63, -4
44219, -978, 396, -136, -5670, -7140, 28350, -205, -43, -1
44220, -974, 400, -134, -6020, -7770, 29190, -207, -54, -1
44221, -967, 403, -128, -6300, -9240, 30800, -205, -48, 7
44222, -967, 406, -126, -6510, -9730, 31640, -205, -54, 7
44223, -967, 410, -124, -6720, -10080, 32550, -205, -43, -6
44224, -971, 413, -125, -6860, -10290, 33460, -199, -43, 1
44225, -972, 415, -119, -7070, -10640, 34440, -198, -34, 6
44226, -993, 420, -124, -7350, -11900, 36890, -205, -37, -1
44227, -1001, 424, -130, -7630, -12110, 38360, -202, -27, 0
44228, -991, 428, -125, -7840, -13090, 39690, -199, -33, -4
44229, -997, 436, -132, -8260, -13580, 41020, -199, -24, -12
44230, -973, 440, -122, -8540, -14770, 42280, -204, -28, -6
44231, -948, 453, -117, -9100, -15610, 44170, -196, -16, -13
44232, -925, 455, -98, -9310, -15890, 44940, -201, -25, -3
44233, -923, 459, -96, -9310, -17220, 45500, -205, -19, -3
44234, -919, 466, -91, -9450, -17570, 45920, -198, -12, -9
44235, -926, 481, -90, -9590, -20020, 46550, -207, -6, -3
44236, -931, 490, -92, -9660, -22120, 46760, -204, -4, -4
44237, -927, 504, -87, -9940, -24150, 46620, -207, -1, -3
44238, -942, 527, -94, -10290, -27020, 46270, -213, 0, -18
44239, -978, 561, -90, -11060, -30940, 45640, -202, 1, -10
44240, -1053, 627, -69, -13650, -47110, 43330, -196, 6, -16
44241, -1004, 621, -24, -15050, -59500, 41510, -199, 6, -18
44242, -1040, 586, -39, -17010, -68320, 40320, -198, 4, -21
44243, -976, 548, -15, -18620, -82390, 38990, -190, 16, -25
44244, -946, 533, -21, -20300, -91000, 38290, -201, 15, -36
44245, -868, 541, -15, -21630, -105840, 36960, -198, 22, -42
44246, -894, 555, -15, -21350, -107520, 36120, -202, 27, -55
44247, -843, 555, 13, -20090, -105490, 35210, -198, 28, -60
44248, -857, 542, 21, -18690, -97650, 34790, -192, 25, -67
44249, -753, 491, 68, -14490, -84210, 34860, -193, 34, -64
44250, -711, 494, 101, -12110, -76090, 35490, -189, 37, -78
44251, -683, 518, 123, -9870, -68460, 36120, -196, 39, -81
44252, -694, 560, 139, -7840, -60760, 36820, -196, 37, -84
44253, -726, 598, 151, -6090, -55230, 37310, -192, 45, -82
44254, -744, 589, 157, -3710, -46410, 38640, -195, 42, -99
44255, -725, 577, 163, -3010, -41790, 39620, -193, 46, -93
44256, -727, 582, 157, -2450, -37240, 40530, -201, 49, -102
