Time [mS], AccX [mg],AccY [mg],AccZ [mg],GyroX [mdps],GyroY [mdps],GyroZ [mdps],MagX [mgauss],MagY [mgauss],MagZ [mgauss]
6868, 164, 950, 228, -1960, 19810, -1820, -720, 322, -42
6869, 163, 952, 231, -1470, 17920, -840, -721, 316, -39
6870, 161, 955, 236, -1050, 16450, -630, -720, 316, -37
6871, 157, 958, 234, -1190, 16450, -420, -718, 322, -52
6872, 156, 957, 232, -1260, 14140, 70, -720, 316, -43
6873, 157, 955, 234, -1190, 11970, 280, -732, 330, -49
6874, 167, 959, 240, -1260, 10990, 560, -717, 316, -45
6875, 168, 954, 239, -1540, 15750, 1190, -715, 319, -55
6876, 167, 952, 240, -1260, 16100, 1190, -724, 313, -43
6877, 211, 961, 294, -1960, 19810, 1540, -726, 309, -45
6878, 143, 956, 216, -2310, 29750, 1260, -729, 319, -63
6879, 171, 959, 256, -1680, 26950, 770, -717, 319, -52
6880, 167, 958, 251, -2380, 32690, 840, -717, 315, -52
6881, 162, 955, 242, -1540, 33880, 0, -718, 318, -55
6882, 149, 952, 236, -1260, 31780, -70, -723, 321, -60
6883, 152, 951, 237, -700, 27370, 560, -721, 325, -58
6884, 163, 958, 261, -630, 28560, 70, -717, 310, -52
6885, 137, 956, 237, 420, 22750, -140, -721, 316, -69
6886, 156, 960, 258, 210, 19740, -630, -720, 318, -67
6887, 160, 957, 270, -210, 25410, -560, -720, 316, -55
6888, 128, 953, 233, 280, 25060, 140, -727, 319, -60
6889, 131, 941, 228, 210, 13930, 5530, -727, 310, -63
6890, 135, 945, 233, 210, 5460, 11060, -715, 310, -66
6891, 149, 950, 252, 210, 1680, 13300, -724, 313, -63
6892, 156, 949, 255, 350, 1470, 16800, -714, 316, -63
6893, 143, 961, 257, 1120, 3710, 14910, -718, 319, -70
6894, 120, 964, 233, 1470, -1470, 9660, -718, 313, -73
6895, 113, 977, 241, 1610, -6370, 4270, -726, 313, -70
6896, 118, 964, 238, 1820, -9520, -980, -727, 310, -61
6897, 132, 965, 251, 1330, -13160, -2450, -724, 313, -61
6898, 142, 968, 260, -630, -10430, -3710, -729, 306, -66
6899, 147, 966, 257, -2170, -9240, -4620, -724, 327, -67
6900, 153, 955, 249, -3220, -9590, -4410, -723, 309, -61
6901, 164, 953, 251, -3710, -10430, -3080, -720, 313, -61
6902, 164, 947, 248, -3500, -9660, -1680, -727, 313, -63
6903, 151, 947, 245, -2380, -8400, 560, -726, 318, -69
6904, 140, 951, 236, -2450, -10990, 1610, -718, 306, -67
6905, -32, 945, 95, -700, -24710, 420, -724, 316, -58
6906, 160, 970, 253, 70, -64960, -3360, -718, 319, -51
6907, 146, 955, 238, -840, -68110, -2520, -723, 319, -54
6908, 204, 962, 291, 910, -46760, 980, -730, 315, -58
6909, 186, 953, 261, 700, -37380, 700, -724, 309, -48
6910, 119, 933, 161, 1610, -40880, 1820, -718, 313, -43
6911, 246, 964, 315, 2590, -50610, 4410, -727, 315, -48
6912, 231, 957, 297, 1330, -15540, 420, -718, 315, -49
6913, 173, 954, 234, 1750, -17430, 0, -718, 315, -40
6914, 173, 956, 240, 1890, -18270, 0, -721, 307, -37
6915, 119, 947, 180, 2660, -23800, 0, -717, 310, -39
6916, 279, 953, 335, 2450, -27510, 980, -724, 319, -51
6917, 117, 954, 176, 70, -3780, 490, -721, 315, -34
6918, 236, 952, 287, 630, -8890, 0, -726, 322, -51
6919, 178, 948, 240, -700, 3150, 1050, -723, 309, -39
6920, 169, 945, 225, 560, -4970, 0, -727, 318, -40
6921, 216, 949, 276, 210, -1680, 350, -730, 316, -45
6922, 185, 951, 248, 420, -2450, 0, -727, 321, -39
6923, 192, 951, 257, 140, -700, 0, -732, 315, -37
6924, 174, 951, 237, 0, -560, -70, -723, 319, -46
6925, 191, 955, 253, 210, -1960, -350, -724, 321, -48
6926, 181, 952, 241, 140, -980, -350, -726, 316, -42
6927, 180, 949, 239, 0, -280, -210, -714, 315, -30
6928, 173, 955, 236, 70, -280, -140, -721, 316, -37
6929, 169, 955, 230, 70, -210, 0, -717, 315, -43
6930, 168, 957, 234, 70, -70, 0, -723, 306, -36
6931, 173, 962, 228, 70, -560, 140, -724, 316, -42
6932, 175, 957, 221, 0, -490, 210, -726, 319, -48
6933, 178, 954, 225, 70, -490, 280, -723, 318, -37
6934, 178, 953, 220, 70, -350, 280, -720, 321, -36
6935, 177, 958, 220, 0, -70, 420, -712, 313, -40
6936, 176, 958, 218, 0, 0, 420, -724, 318, -36
6937, 177, 957, 216, 0, -490, 350, -724, 313, -37
6938, 179, 957, 218, -70, -350, 420, -721, 316, -36
6939, 181, 957, 219, 0, -560, 490, -718, 312, -46
6940, 180, 956, 221, 0, -420, 420, -720, 315, -40
6941, 183, 957, 221, -70, -350, 420, -723, 312, -40
6942, 188, 957, 225, -140, -630, 280, -724, 312, -39
6943, 189, 954, 225, -140, -420, 280, -724, 315, -46
6944, 191, 952, 229, -140, -560, 140, -712, 313, -34
6945, 192, 953, 226, -140, -560, -210, -720, 318, -39
6946, 193, 951, 252, -490, -140, -280, -730, 315, -43
6947, 202, 971, 165, -420, -1540, -560, -735, 321, -42
6948, 197, 955, 234, -490, 350, -560, -718, 315, -34
6949, 191, 934, 231, -420, -1680, -1050, -718, 310, -51
6950, 203, 949, 218, -210, -1680, -1400, -723, 312, -31
6951, 196, 952, 217, -350, 490, -1260, -724, 313, -46
6952, 209, 953, 231, 0, -1890, -1820, -730, 318, -36
6953, 195, 945, 236, -350, 840, -1680, -727, 319, -39
6954, 204, 944, 233, -350, 630, -2310, -726, 315, -40
6955, 215, 948, 252, 0, -1120, -2940, -727, 313, -40
6956, 209, 946, 248, -350, 560, -3010, -726, 316, -39
6957, 210, 949, 265, -280, -350, -3570, -724, 315, -40
6958, 203, 945, 250, -420, 140, -3920, -720, 310, -37
6959, 204, 938, 249, -350, -490, -4760, -717, 319, -46
6960, 214, 935, 266, -350, -280, -5110, -720, 319, -37
6961, 213, 931, 256, -210, -280, -5530, -717, 309, -36
6962, 219, 937, 270, -70, 840, -5740, -724, 322, -28
6963, 215, 941, 263, 140, 1400, -6090, -724, 318, -46
6964, 194, 946, 262, 210, 2660, -6580, -726, 318, -30
6965, 174, 948, 259, 0, 3430, -6720, -717, 318, -37
6966, 167, 949, 249, 70, 1680, -7210, -717, 315, -24
6967, 170, 944, 258, -140, 1820, -7350, -720, 322, -34
6968, 117, 955, 276, 0, 4970, -6650, -724, 313, -40
6969, 57, 978, 274, 560, 3710, -6160, -718, 315, -51
6970, 36, 990, 274, 630, 3990, -5040, -715, 309, -42
6971, 29, 980, 262, 490, 1960, -3780, -720, 322, -40
6972, 49, 962, 264, 140, -420, -2450, -717, 321, -37
6973, 93, 960, 254, 0, -1540, -490, -715, 324, -37
6974, 122, 961, 245, 70, -350, 0, -727, 321, -39
6975, 150, 966, 239, 350, 70, 210, -720, 318, -37
6976, 170, 963, 226, 280, -350, 140, -723, 319, -40
6977, 190, 959, 225, 140, -1050, 0, -723, 324, -39
6978, 213, 945, 217, 140, -910, -630, -714, 321, -37
6979, 213, 947, 212, 280, 560, -980, -723, 312, -43
6980, 212, 957, 214, 350, 1260, -1540, -715, 321, -39
6981, 208, 958, 215, 350, 1750, -1960, -720, 327, -42
6982, 201, 952, 213, 210, 1610, -2800, -718, 316, -39
6983, 193, 956, 216, 140, 1540, -3080, -715, 318, -36
6984, 181, 956, 212, 70, 1400, -3360, -727, 321, -34
6985, 177, 956, 213, 140, 1610, -3640, -724, 312, -30
6986, 176, 955, 209, 140, 1400, -3990, -708, 316, -43
6987, 175, 965, 212, 70, 1540, -4200, -723, 321, -31
6988, 163, 968, 217, -70, 2030, -4130, -715, 324, -42
6989, 145, 960, 219, 70, 2310, -4130, -715, 316, -39
6990, 134, 959, 216, 280, 2240, -3920, -715, 319, -40
6991, 131, 964, 218, 350, 1890, -3430, -714, 316, -33
6992, 109, 971, 229, 140, 1470, -2940, -709, 315, -45
6993, 94, 969, 234, 140, 1540, -2450, -712, 319, -51
6994, 86, 974, 238, 210, 1120, -1890, -717, 322, -37
6995, 81, 975, 246, 210, 1050, -1190, -723, 325, -43
6996, 69, 957, 256, 350, 70, 490, -718, 324, -48
6997, 71, 965, 260, 420, -420, 1260, -715, 319, -31
6998, 81, 970, 258, 350, -1050, 1960, -721, 316, -39
6999, 97, 967, 258, 350, -1190, 2590, -714, 321, -40
7000, 115, 958, 260, 210, -1680, 3010, -718, 312, -37
7001, 157, 950, 266, 280, -2380, 3150, -714, 321, -40
7002, 182, 945, 267, 210, -2240, 3010, -711, 316, -40
7003, 212, 938, 263, 280, -2660, 2450, -712, 327, -36
7004, 232, 942, 261, 210, -1540, 1890, -720, 331, -39
7005, 245, 942, 259, 140, 140, 350, -700, 319, -33
7006, 247, 937, 249, 140, 560, -560, -714, 322, -28
7007, 246, 943, 244, 70, 1750, -1330, -726, 322, -46
7008, 243, 947, 239, 140, 2240, -2100, -723, 324, -27
7009, 233, 946, 233, 70, 3010, -2870, -715, 319, -40
7010, 222, 941, 219, 350, 4200, -4200, -717, 330, -36
7011, 219, 948, 216, 490, 4270, -4830, -715, 313, -34
7012, 210, 948, 214, 560, 5530, -5180, -717, 319, -34
7013, 197, 941, 220, 840, 5880, -5600, -709, 315, -37
7014, 181, 941, 221, 1190, 6720, -5810, -723, 325, -31
7015, 156, 972, 225, 1890, 7840, -5670, -720, 315, -30
7016, 124, 1037, 270, 2030, 9870, -5110, -715, 330, -33
7017, -396, 1270, 413, -5040, 15960, -3500, -711, 319, -39
7018, -960, 1089, -85, -14070, -42420, -4830, -714, 322, -37
7019, 163, 832, 420, -21910, -24710, -1400, -712, 315, -34
7020, -159, 1045, -82, -13160, -84140, -7560, -714, 322, -28
7021, 441, 910, 529, -12250, -64120, -3570, -723, 327, -30
7022, 147, 758, 220, -12670, -26600, 700, -706, 325, -31
7023, 249, 866, 278, -6370, -46690, 350, -705, 318, -36
7024, 287, 958, 182, 210, 9940, 8680, -711, 325, -28
7025, 339, 828, 375, 6720, 8050, 8190, -711, 321, -42
7026, 80, 815, 247, 5600, 40460, 11900, -720, 319, -33
7027, 38, 965, 269, 8540, 15540, 9170, -706, 319, -33
7028, 126, 1030, 270, 6720, 23100, 10920, -714, 310, -27
7029, 182, 942, 275, 7210, 27860, 12740, -711, 327, -37
7030, 183, 986, 327, 7490, 35630, 13860, -717, 318, -34
7031, 119, 1011, 226, 7980, 39060, 15190, -718, 319, -40
7032, 162, 991, 312, 9170, 40670, 16240, -715, 313, -36
7033, 105, 899, 232, 11690, 49560, 19460, -726, 312, -39
7034, 47, 925, 214, 12110, 51870, 20860, -723, 319, -40
7035, 79, 981, 282, 12530, 47950, 21350, -723, 318, -40
7036, 23, 970, 236, 11480, 47460, 22190, -721, 319, -40
7037, 22, 971, 270, 10500, 37590, 21910, -711, 307, -43
7038, 27, 1049, 256, 6020, 25060, 21910, -727, 315, -45
7039, 52, 1045, 245, 3990, 13720, 21280, -724, 306, -49
7040, 79, 1007, 267, 1330, 10150, 21140, -723, 315, -49
7041, 86, 957, 245, -70, 2450, 20440, -724, 303, -49
7042, 129, 946, 271, -1470, -770, 20160, -732, 315, -55
7043, 154, 925, 262, -1890, -5460, 20020, -730, 307, -51
7044, 168, 899, 257, -1330, -7420, 19950, -742, 321, -51
7045, 186, 896, 259, -980, -6860, 20160, -732, 310, -42
7046, 214, 913, 262, -350, -8540, 19880, -733, 307, -49
7047, 225, 932, 266, -420, -8960, 19180, -739, 297, -51
7048, 262, 930, 260, -1120, -7000, 18760, -735, 310, -54
7049, 287, 942, 267, -1470, -9380, 17710, -726, 309, -46
7050, 303, 950, 268, -2100, -8120, 16940, -730, 304, -48
7051, 313, 943, 276, -2380, -8680, 15890, -741, 313, -52
7052, 317, 906, 291, -2100, -7420, 14000, -735, 298, -61
7053, 308, 896, 284, -1820, -5530, 13440, -733, 303, -48
7054, 315, 894, 298, -1190, -5670, 12530, -735, 309, -42
7055, 299, 882, 287, -980, -3990, 11760, -733, 300, -49
7056, 305, 881, 303, -630, -5460, 10570, -730, 294, -43
7057, 320, 907, 304, -980, -7140, 8050, -741, 304, -52
7058, 321, 915, 297, -1400, -7490, 6930, -730, 294, -43
7059, 325, 916, 312, -1750, -8050, 5740, -736, 303, -52
7060, 316, 908, 308, -2030, -7980, 4760, -744, 303, -46
7061, 312, 898, 318, -1680, -6440, 3150, -738, 298, -60
7062, 313, 888, 331, -1400, -4900, 2590, -733, 303, -37
7063, 297, 869, 327, -910, -3430, 2030, -735, 301, -51
7064, 285, 867, 342, -490, -2310, 1540, -741, 301, -39
7065, 271, 871, 336, -70, -1540, 1120, -738, 297, -49
7066, 245, 888, 347, 280, -1750, 490, -738, 294, -49
7067, 229, 907, 354, 140, -2450, 280, -732, 301, -46
7068, 214, 918, 347, -70, -3710, 70, -736, 301, -45
7069, 199, 924, 356, -350, -4340, 0, -736, 298, -49
7070, 191, 926, 354, -560, -6440, -70, -736, 295, -58
7071, 182, 904, 355, -630, -7070, 140, -735, 301, -46
7072, 195, 890, 363, -140, -6580, 420, -736, 294, -46
7073, 206, 877, 362, 350, -4760, 840, -738, 292, -46
7074, 204, 861, 351, 840, -3080, 1540, -733, 298, -39
7075, 194, 843, 339, 1750, -1820, 2520, -733, 301, -48
7076, 223, 842, 347, 2450, -2590, 2730, -730, 298, -39
7077, 227, 863, 331, 2870, -210, 3220, -738, 304, -43
7078, 257, 917, 341, 3570, -1120, 3360, -741, 304, -45
7079, 278, 991, 320, 3570, 770, 3920, -736, 295, -42
7080, 355, 1056, 326, 3220, 5880, 4900, -739, 297, -45
7081, 335, 1031, 289, 3220, 9240, 5180, -729, 297, -45
7082, 329, 976, 280, 3220, 13440, 5390, -735, 298, -48
7083, 287, 894, 254, 3010, 17360, 5600, -741, 303, -49
7084, 247, 864, 241, 3150, 16170, 5460, -733, 300, -43
7085, 218, 984, 273, 1890, 9730, 4760, -741, 300, -48
7086, 201, 1001, 274, 770, 4830, 3920, -738, 294, -46
7087, 211, 998, 289, -210, 1540, 2870, -744, 289, -43
7088, 174, 981, 269, -1120, 1120, 2030, -745, 291, -42
7089, 223, 850, 266, -840, 840, 420, -748, 301, -40
7090, 274, 802, 282, 350, -2590, -420, -741, 309, -42
7091, 308, 788, 298, 840, 2660, 140, -741, 298, -45
7092, 324, 798, 294, 2170, 2030, 210, -736, 303, -46
7093, 340, 824, 318, 3150, 6790, 840, -736, 304, -42
7094, 313, 844, 331, 5810, 14140, 1400, -736, 298, -34
7095, 305, 847, 328, 7280, 17220, 1470, -733, 297, -46
7096, 279, 837, 326, 8050, 22680, 1960, -738, 294, -42
7097, 260, 828, 329, 8750, 22330, 1960, -741, 304, -51
7098, 240, 864, 328, 8400, 23450, 2100, -741, 303, -48
7099, 231, 910, 336, 7490, 20650, 2240, -738, 304, -49
7100, 209, 881, 335, 7280, 18200, 1610, -750, 298, -46
7101, 207, 856, 329, 6860, 16380, 1120, -732, 294, -42
7102, 219, 882, 324, 6930, 13370, 350, -742, 297, -45
7103, 294, 911, 334, 5810, 8610, -560, -747, 292, -46
7104, 264, 875, 306, 3920, 9730, -490, -741, 306, -48
7105, 270, 857, 318, 2660, 5880, -1260, -744, 292, -52
7106, 228, 875, 271, 560, 9520, -1190, -738, 307, -45
7107, 242, 911, 276, -490, 4480, -2240, -738, 292, -52
7108, 224, 985, 239, -5670, 1960, -3920, -741, 304, -42
7109, 278, 1138, 276, -8890, -910, -5250, -736, 306, -43
7110, 309, 1259, 306, -12180, -2660, -6510, -741, 303, -49
7111, 379, 1293, 424, -14070, -7490, -8400, -733, 295, -51
7112, 344, 1269, 463, -8750, -13300, -11060, -738, 304, -40
7113, 350, 998, 284, -3290, 2030, -9870, -736, 306, -48
7114, 323, 642, 191, 5320, -8330, -11830, -733, 303, -51
7115, 320, 430, 206, 8960, 4200, -11620, -741, 301, -42
7116, 269, 473, 101, 11550, -70, -13300, -739, 301, -39
7117, 344, 1151, 66, 7980, 7070, -12740, -736, 304, -48
7118, 335, 1189, 124, 3290, 15750, -11550, -736, 307, -55
7119, 261, 1038, 94, -1120, 15470, -11970, -730, 301, -57
7120, 246, 972, 172, -6160, 18970, -12180, -724, 303, -45
7121, 239, 977, 164, -9170, 16240, -12810, -736, 306, -51
7122, 204, 702, 249, -11130, 19600, -11830, -739, 316, -45
7123, 188, 458, 417, -10220, 21210, -11970, -739, 312, -54
7124, 172, 517, 360, -6650, 16730, -12810, -735, 315, -45
7125, 249, 733, 377, -1610, 14630, -13020, -730, 310, -58
7126, 245, 838, 343, 8050, 14350, -13790, -733, 322, -49
7127, 300, 976, 367, 9730, 14350, -15470, -738, 306, -52
7128, 377, 1214, 316, 9170, 12250, -17430, -726, 318, -51
7129, 375, 1305, 180, 5950, 14560, -18410, -735, 313, -55
7130, 291, 1137, 207, 2870, 12530, -19670, -741, 318, -49
7131, 220, 1022, 205, -140, 2310, -22610, -732, 316, -58
7132, 245, 1064, 188, 980, 1750, -23170, -732, 316, -45
7133, 235, 993, 162, 2730, 3850, -23310, -727, 318, -63
7134, 227, 887, 170, 4690, 4900, -23870, -733, 313, -58
7135, 239, 925, 113, 6650, 4130, -24640, -723, 316, -54
7136, 289, 1130, 32, 9590, 9100, -24010, -733, 321, -52
7137, 271, 1108, 80, 10430, 11760, -23520, -726, 324, -52
7138, 200, 1047, 25, 10010, 14140, -23170, -723, 327, -55
7139, 165, 980, 50, 9030, 14490, -23310, -721, 318, -51
7140, 92, 912, 0, 7490, 15680, -22190, -729, 328, -54
7141, 85, 836, 31, 7070, 19390, -20930, -715, 328, -51
7142, 108, 849, 51, 7420, 18830, -20230, -723, 328, -54
7143, 145, 904, 63, 7490, 22820, -19110, -717, 333, -60
7144, 185, 994, 65, 8470, 25270, -18200, -721, 322, -57
7145, 186, 1096, 33, 10150, 34930, -15610, -714, 331, -58
7146, 169, 1106, 10, 11130, 36540, -14350, -721, 333, -57
7147, 99, 1140, -35, 11550, 37800, -13020, -712, 324, -61
7148, 42, 1167, -61, 11620, 32550, -12460, -718, 328, -58
7149, -1, 1182, -86, 10850, 26950, -11900, -721, 327, -60
7150, -72, 1167, -129, 7420, 10150, -11760, -715, 340, -60
7151, -108, 1087, -143, 4690, 280, -11900, -717, 342, -70
7152, -105, 1019, -118, 1890, -8470, -11900, -718, 331, -54
7153, -97, 969, -131, -770, -15540, -11550, -718, 336, -57
7154, -65, 983, -101, -3430, -24430, -9870, -718, 336, -55
7155, 17, 1026, -81, -3500, -23520, -8540, -727, 327, -54
7156, 61, 1018, -87, -2660, -23030, -7350, -717, 339, -55
7157, 74, 1024, -45, -1890, -15960, -5530, -718, 334, -52
7158, 59, 1013, -61, -630, -14210, -4270, -714, 340, -55
7159, 43, 1000, -46, 280, -8890, -1400, -712, 342, -58
7160, 30, 1006, -16, -420, -6160, 0, -709, 324, -66
7161, 30, 1015, -13, -840, -10220, 420, -715, 342, -54
7162, 21, 1046, 1, -2240, -8960, 1470, -717, 339, -46
7163, 9, 1050, 0, -2870, -15820, 1330, -720, 337, -58
7164, -11, 1022, 37, -5600, -25760, 1050, -712, 346, -55
7165, 7, 1012, 65, -7210, -32480, 630, -715, 337, -55
7166, 29, 990, 55, -8540, -40530, -70, -717, 337, -48
7167, 87, 976, 83, -9590, -45010, -560, -717, 334, -46
7168, 193, 965, 98, -9730, -46410, -1120, -714, 337, -48
7169, 273, 967, 109, -8820, -42420, -910, -711, 334, -60
7170, 318, 965, 125, -7420, -32620, -210, -714, 342, -48
7171, 325, 948, 122, -5530, -22820, 560, -714, 345, -42
7172, 328, 936, 133, -3360, -11900, 1400, -708, 331, -42
7173, 275, 943, 132, 840, 9240, 3150, -714, 339, -48
7174, 228, 956, 129, 2310, 16100, 3500, -717, 336, -40
7175, 185, 973, 135, 3150, 20720, 3570, -711, 325, -49
7176, 150, 989, 132, 3360, 22260, 3360, -718, 330, -49
7177, 125, 998, 136, 3150, 21980, 3010, -718, 340, -46
7178, 74, 997, 138, 1540, 16590, 2170, -712, 333, -51
7179, 63, 998, 142, 350, 10710, 1330, -714, 342, -52
7180, 60, 999, 147, -840, 5530, 560, -717, 339, -46
7181, 76, 1000, 161, -1960, -770, -420, -717, 342, -42
7182, 125, 988, 207, -3640, -8540, -1960, -718, 339, -54
7183, 141, 974, 224, -3850, -10220, -2520, -717, 337, -46
7184, 167, 973, 244, -3640, -11900, -3150, -709, 340, -51
7185, 185, 972, 262, -3220, -10990, -3500, -717, 334, -51
7186, 194, 962, 280, -2590, -9940, -3920, -717, 331, -58
7187, 195, 947, 313, -1540, -5880, -4340, -715, 340, -49
7188, 188, 950, 313, -1260, -2870, -4410, -712, 340, -37
7189, 181, 971, 327, -910, -140, -4410, -706, 336, -48
7190, 158, 959, 324, -560, 2800, -4200, -712, 333, -46
7191, 155, 941, 348, 0, 4900, -3990, -703, 339, -45
7192, 150, 941, 349, 840, 8260, -4060, -720, 328, -45
7193, 121, 936, 312, 1190, 9170, -4200, -720, 336, -40
7194, 137, 939, 353, 1470, 8680, -4550, -717, 337, -48
7195, 106, 929, 313, 1470, 9240, -4690, -715, 330, -49
7196, 91, 939, 310, 1260, 7560, -5460, -706, 336, -52
7197, 97, 942, 329, 1120, 6020, -5950, -714, 333, -42
7198, 89, 935, 307, 700, 5040, -6230, -717, 336, -49
7199, 103, 933, 322, 490, 3710, -6720, -700, 340, -57
7200, 103, 937, 304, 280, 2800, -7070, -708, 343, -52
7201, 114, 934, 300, 140, 1400, -8050, -712, 334, -51
7202, 131, 932, 315, 210, 1260, -8470, -708, 333, -42
7203, 129, 933, 294, 420, 980, -8890, -717, 340, -43
7204, 136, 942, 304, 560, 1750, -9240, -708, 348, -46
7205, 126, 947, 288, 700, 2520, -9380, -712, 343, -48
7206, 98, 949, 288, 1120, 4410, -9310, -706, 336, -49
7207, 81, 953, 293, 1190, 5880, -8960, -711, 337, -46
7208, 61, 956, 286, 1470, 5810, -8680, -699, 343, -39
7209, 44, 956, 289, 1610, 7210, -8120, -705, 336, -51
7210, 24, 958, 280, 1960, 7350, -7140, -706, 339, -43
7211, 22, 967, 272, 1960, 6020, -6790, -702, 331, -51
7212, 15, 974, 267, 1470, 6230, -6160, -708, 342, -42
7213, 16, 977, 264, 1400, 4060, -6020, -703, 342, -46
7214, 14, 978, 258, 910, 3920, -5530, -705, 337, -43
7215, 20, 983, 249, 420, 2170, -4690, -709, 340, -45
7216, 20, 981, 250, 490, 1120, -4060, -705, 340, -57
7217, 9, 974, 247, 700, 3080, -2870, -709, 339, -51
7218, 3, 966, 250, 1330, 3780, -1680, -709, 342, -40
7219, -8, 963, 247, 1820, 9240, 1820, -717, 342, -51
7220, -38, 978, 250, 3150, 12670, 3850, -700, 334, -48
7221, -58, 990, 259, 3640, 14210, 5810, -715, 342, -61
7222, -84, 1001, 256, 3640, 15260, 7700, -711, 336, -52
7223, -99, 1013, 259, 3290, 14210, 9240, -709, 340, -55
7224, -130, 1035, 240, 1120, 8610, 11900, -703, 334, -43
7225, -137, 1031, 230, -350, 3990, 12880, -717, 336, -49
7226, -130, 1021, 228, -1680, -1540, 13720, -708, 336, -46
7227, -113, 1008, 224, -2590, -6440, 14700, -709, 337, -57
7228, -87, 992, 228, -3080, -10080, 15820, -711, 343, -54
7229, -46, 970, 223, -3150, -12530, 18620, -717, 342, -51
7230, -33, 969, 221, -2730, -12110, 20230, -711, 337, -46
7231, -21, 976, 226, -2590, -11410, 21910, -720, 336, -54
7232, -11, 986, 223, -2520, -10710, 23450, -711, 336, -49
7233, 0, 1001, 222, -3080, -9660, 26320, -711, 336, -57
7234, 21, 1005, 215, -3290, -9100, 27580, -727, 331, -43
7235, 31, 987, 214, -3430, -9170, 28700, -714, 337, -49
7236, 42, 967, 213, -3430, -9310, 29680, -721, 331, -54
7237, 54, 955, 207, -3220, -9870, 30450, -727, 328, -48
7238, 88, 950, 203, -2800, -11550, 31430, -711, 334, -52
7239, 115, 956, 204, -2800, -12320, 31710, -723, 328, -52
7240, 146, 961, 206, -2940, -13510, 31640, -721, 328, -48
7241, 175, 963, 210, -3220, -13860, 31430, -724, 318, -49
7242, 199, 953, 213, -3430, -14490, 31080, -727, 316, -60
7243, 243, 916, 222, -3290, -14000, 30030, -726, 327, -46
7244, 271, 909, 223, -2940, -12880, 29400, -732, 318, -51
7245, 299, 911, 224, -2310, -11340, 28560, -730, 319, -45
7246, 321, 914, 225, -1750, -8750, 27860, -733, 324, -57
7247, 336, 913, 228, -770, -3780, 26040, -729, 324, -54
7248, 335, 921, 230, -420, -2030, 24990, -735, 319, -52
7249, 324, 921, 228, -140, -70, 24010, -732, 316, -52
7250, 313, 917, 229, 70, 420, 22890, -736, 327, -48
7251, 305, 918, 228, 280, 1260, 21770, -735, 316, -64
7252, 297, 925, 236, 490, 1610, 19740, -738, 315, -49
7253, 290, 924, 240, 490, 1330, 18760, -736, 319, -54
7254, 285, 923, 244, 560, 1260, 17990, -741, 313, -46
7255, 281, 925, 246, 630, 770, 17080, -739, 310, -45
7256, 279, 928, 251, 560, 420, 16240, -736, 303, -51
7257, 285, 930, 258, 350, -1260, 14280, -744, 310, -55
7258, 295, 932, 259, 0, -2520, 13300, -747, 306, -46
7259, 304, 934, 254, -280, -3430, 12180, -739, 313, -55
7260, 322, 938, 245, -630, -4550, 11060, -741, 313, -63
7261, 347, 950, 211, -1330, -4620, 8470, -741, 309, -54
7262, 372, 941, 208, -1330, -3640, 7420, -739, 304, -51
7263, 356, 908, 204, -1050, -1050, 6720, -732, 316, -58
7264, 334, 879, 214, -70, 630, 5880, -750, 310, -51
7265, 306, 872, 216, 770, 2240, 5180, -741, 306, -52
7266, 294, 905, 232, 2380, 2380, 3780, -754, 306, -57
7267, 286, 923, 239, 2590, 2450, 3150, -744, 313, -48
7268, 296, 937, 247, 2590, 1680, 2520, -742, 310, -45
7269, 298, 966, 262, 2030, 3640, 2170, -750, 310, -49
7270, 287, 977, 241, 1750, 3710, 1820, -738, 303, -58
7271, 257, 944, 251, 1330, 7140, 1680, -748, 306, -49
7272, 258, 921, 263, 1820, 7560, 1540, -735, 310, -54
7273, 240, 909, 260, 2310, 9940, 1820, -732, 312, -54
7274, 240, 902, 266, 3220, 10220, 2100, -736, 304, -57
7275, 212, 915, 271, 4550, 14700, 3150, -747, 318, -49
7276, 234, 916, 290, 5390, 13930, 3430, -741, 303, -54
7277, 249, 928, 301, 5810, 18340, 4200, -747, 312, -54
7278, 260, 936, 296, 6510, 19740, 4620, -742, 304, -52
7279, 293, 932, 330, 7210, 24360, 5250, -739, 306, -54
7280, 264, 913, 345, 8400, 31570, 6160, -747, 312, -63
7281, 221, 919, 340, 8260, 32900, 6370, -745, 312, -55
7282, 196, 938, 348, 7910, 29400, 6020, -744, 312, -66
7283, 169, 954, 348, 6720, 25480, 5460, -747, 304, -69
7284, 161, 955, 357, 5390, 18760, 4550, -747, 298, -63
7285, 176, 935, 358, 2730, 7840, 2660, -759, 310, -66
7286, 193, 916, 355, 1820, 3500, 1890, -745, 316, -67
7287, 208, 889, 353, 1120, -280, 1120, -744, 298, -67
7288, 236, 872, 359, 840, -3780, 280, -751, 310, -58
7289, 296, 882, 369, 1470, -3990, -840, -738, 315, -55
7290, 321, 903, 370, 2450, -1540, -1190, -739, 304, -61
7291, 323, 905, 358, 3360, 1750, -1400, -745, 310, -63
7292, 320, 887, 365, 4270, 4550, -1680, -745, 312, -61
7293, 306, 860, 360, 4900, 7350, -1960, -747, 301, -52
7294, 287, 884, 349, 5740, 10360, -2870, -756, 307, -61
7295, 264, 901, 348, 5460, 10360, -3640, -741, 307, -58
7296, 259, 906, 357, 5110, 7560, -4900, -753, 303, -63
7297, 263, 919, 365, 4480, 6370, -5880, -741, 304, -66
7298, 246, 906, 342, 3780, 4270, -6930, -739, 310, -63
7299, 244, 865, 354, 2870, 1610, -8890, -745, 306, -60
7300, 262, 841, 373, 2870, -210, -9940, -745, 310, -67
7301, 269, 815, 372, 2660, 910, -10640, -747, 309, -63
7302, 283, 812, 372, 2800, 630, -11480, -742, 319, -57
7303, 311, 826, 389, 2730, 3500, -12880, -741, 321, -69
7304, 323, 851, 390, 2660, 4480, -13720, -741, 318, -55
7305, 337, 877, 402, 2240, 6300, -14490, -747, 325, -61
7306, 313, 877, 391, 1610, 8260, -15190, -745, 310, -63
7307, 305, 875, 408, 1190, 8330, -16170, -748, 313, -60
7308, 287, 877, 402, 140, 8190, -17500, -745, 315, -58
7309, 284, 896, 395, -70, 9660, -17780, -741, 312, -60
7310, 251, 932, 375, -140, 10080, -18200, -739, 319, -57
7311, 262, 1024, 379, 210, 8470, -18970, -735, 322, -57
7312, 220, 1027, 352, 0, 12390, -19320, -745, 327, -48
7313, 160, 895, 345, 350, 12530, -20860, -736, 321, -61
7314, 176, 836, 405, 1750, 10640, -21280, -739, 325, -57
7315, 126, 851, 356, 3850, 14560, -20090, -736, 324, -58
7316, 109, 856, 334, 7770, 9590, -19390, -742, 334, -49
7317, -21, 811, 214, 14070, 6300, -16660, -744, 319, -60
7318, -21, 890, 188, 15260, 6580, -15470, -736, 333, -54
7319, 10, 1125, 153, 15470, 2240, -15260, -739, 322, -63
7320, 116, 1390, 150, 13510, 1120, -14840, -735, 328, -42
7321, 210, 1457, 205, 10360, 2660, -14140, -730, 339, -48
7322, 274, 1175, 299, 5460, 10080, -11270, -733, 330, -48
7323, 214, 988, 273, 5180, 15190, -8960, -732, 334, -57
7324, 107, 782, 230, 6510, 21700, -6230, -729, 325, -55
7325, 15, 577, 167, 9660, 25760, -3850, -726, 324, -49
7326, -36, 491, 170, 12880, 32340, 490, -732, 334, -51
7327, 88, 824, 192, 18480, 36120, 2800, -735, 328, -49
7328, 159, 1120, 164, 18970, 39060, 5180, -726, 328, -45
7329, 259, 1328, 242, 17570, 41790, 7210, -730, 318, -61
7330, 182, 1358, 222, 12950, 48580, 8890, -727, 328, -57
7331, 83, 1344, 222, 2240, 36680, 6930, -730, 322, -57
7332, 96, 1252, 248, -2520, 28980, 5250, -741, 328, -54
7333, 110, 999, 288, -7140, 27300, 4410, -733, 309, -67
7334, 83, 773, 274, -10290, 23800, 3710, -736, 316, -57
7335, 76, 658, 265, -12320, 20300, 3570, -726, 321, -60
7336, 0, 832, 228, -15190, 12530, 3850, -733, 331, -66
7337, -24, 938, 293, -16520, 5740, 3290, -729, 321, -70
7338, 24, 1007, 422, -16520, -350, 2520, -739, 322, -70
7339, 154, 1216, 481, -14350, -3500, 2660, -739, 324, -75
7340, 276, 1234, 467, -5250, 13230, 8120, -733, 319, -70
7341, 57, 716, 284, 2100, 11130, 10360, -742, 325, -72
7342, -32, 534, 240, 8260, 13650, 12810, -726, 309, -75
7343, -116, 447, 99, 13720, 7770, 14280, -735, 316, -64
7344, -78, 484, 109, 16100, 3500, 15400, -726, 318, -63
7345, -85, 634, 148, 13370, -11270, 14910, -738, 330, -72
7346, 4, 1009, 131, 9030, -11130, 14840, -735, 316, -72
7347, 236, 1487, 203, 5810, -20720, 13580, -732, 322, -69
7348, 337, 1803, 222, -1120, -10360, 14840, -751, 315, -60
7349, 335, 1716, 288, -7770, -14070, 14350, -739, 319, -61
7350, 244, 1256, 251, -19460, -21280, 12530, -730, 316, -60
7351, 278, 1136, 266, -21980, -20440, 12180, -742, 312, -78
7352, 149, 895, 215, -22680, -12110, 12670, -742, 325, -63
7353, 158, 775, 236, -19880, -16310, 12180, -742, 318, -69
7354, 214, 822, 315, -14420, 2450, 15330, -747, 310, -60
7355, 166, 708, 285, -10710, 10710, 17780, -745, 322, -72
7356, 62, 555, 271, -6720, 20160, 20650, -745, 315, -76
7357, -2, 523, 237, -1540, 22050, 23240, -735, 307, -66
7358, 8, 614, 244, 3710, 21700, 25690, -742, 310, -75
7359, -35, 707, 202, 9450, 14560, 30590, -747, 304, -76
7360, -75, 809, 152, 8190, 14840, 32830, -751, 303, -79
7361, 10, 995, 164, 7000, -350, 32480, -753, 301, -88
7362, 68, 1213, 200, 2030, 2240, 33530, -751, 303, -79
7363, 98, 1401, 175, -2520, -8400, 32550, -748, 301, -75
7364, 150, 1316, 256, -14980, -16380, 30870, -765, 295, -79
7365, 141, 1182, 274, -20720, -22190, 30030, -751, 294, -87
7366, 181, 1016, 261, -24850, -34090, 28630, -756, 301, -79
7367, 104, 797, 233, -28770, -34230, 28630, -763, 298, -85
7368, 87, 802, 245, -29330, -47460, 26250, -757, 298, -75
7369, 129, 908, 362, -28490, -50120, 25200, -760, 289, -75
7370, 148, 863, 406, -27090, -55440, 24220, -763, 286, -84
7371, 108, 748, 380, -24990, -57820, 23590, -763, 301, -70
7372, 81, 644, 319, -20300, -66850, 22330, -757, 295, -79
7373, 266, 938, 198, -7490, -72730, 21770, -759, 297, -75
7374, 385, 1073, 181, -2800, -69930, 22540, -763, 282, -64
7375, 439, 1075, 166, -1330, -61600, 23660, -759, 289, -64
7376, 472, 1154, 203, -2590, -55300, 24010, -757, 289, -52
7377, 503, 1286, 181, -6370, -53410, 23660, -766, 286, -61
7378, 512, 1242, 162, -15470, -49910, 21980, -765, 282, -49
7379, 531, 1079, 236, -18550, -50820, 19810, -765, 282, -63
7380, 439, 882, 183, -21490, -44380, 17920, -762, 286, -49
7381, 496, 790, 220, -21770, -47880, 14560, -763, 279, -61
7382, 523, 794, 194, -22680, -32620, 10220, -778, 283, -54
7383, 533, 726, 219, -22890, -25550, 7910, -765, 288, -48
7384, 545, 669, 242, -23170, -18550, 5740, -762, 283, -46
7385, 551, 668, 264, -23310, -10920, 4060, -763, 288, -57
7386, 549, 769, 272, -22820, -4690, 2730, -757, 279, -58
7387, 610, 1117, 444, -19250, 3710, 910, -756, 280, -51
7388, 643, 1341, 478, -14350, 10220, 0, -774, 282, -52
7389, 747, 1528, 385, -7420, 10850, -630, -765, 276, -61
7390, 747, 1340, 343, -2030, 24150, 280, -768, 286, -64
7391, 413, 766, 176, 210, 34510, 1050, -774, 285, -67
7392, 266, 104, 203, 0, 30870, -2590, -777, 291, -54
7393, 309, 299, 158, 1680, 17430, -5670, -774, 294, -70
7394, 349, 561, 147, 1400, 33460, -3990, -765, 279, -63
7395, 273, 693, 85, 3080, 32690, -3570, -768, 288, -70
7396, 212, 576, 291, 1750, 29610, -1540, -765, 295, -72
7397, 210, 734, 403, 280, 32200, 350, -772, 291, -78
7398, 261, 1080, 372, 3010, 20440, 1400, -772, 285, -63
7399, 250, 1361, 350, 5250, 23660, 4480, -775, 291, -70
7400, 75, 1221, 275, 8190, 14140, 5880, -771, 288, -72
7401, -48, 741, 204, 8820, -8260, 4900, -763, 294, -78
7402, 86, 745, 189, 8400, -22680, 3570, -771, 288, -78
7403, 103, 735, 155, 6020, -17220, 4690, -768, 300, -70
7404, 80, 625, 125, 4970, -25200, 4830, -775, 292, -69
7405, 100, 510, 180, 2590, -25340, 5740, -768, 295, -61
7406, 171, 712, 157, -490, -33460, 6930, -772, 286, -64
7407, 279, 1164, 179, -1890, -33530, 8260, -768, 283, -57
7408, 450, 1525, 277, -4410, -34440, 9520, -771, 285, -61
7409, 500, 1535, 382, -10080, -24010, 11200, -778, 289, -61
7410, 493, 1189, 401, -20020, -21910, 10360, -778, 292, -58
7411, 426, 1060, 336, -22750, -12250, 10570, -784, 282, -60
7412, 427, 1016, 387, -20440, -13650, 9380, -769, 286, -63
7413, 457, 961, 437, -16100, -5460, 10010, -763, 288, -55
7414, 613, 1058, 490, -8960, -4480, 10150, -775, 288, -54
7415, 452, 772, 337, 1400, 11620, 14700, -771, 292, -66
7416, 330, 625, 221, 3780, 18690, 16450, -775, 285, -58
7417, 404, 889, 238, 6930, 5950, 14980, -771, 279, -57
7418, 454, 1222, 197, 5460, 13370, 15680, -774, 282, -57
7419, 457, 1276, 190, 3500, 6650, 14210, -781, 276, -61
7420, 366, 937, 247, -5880, -2730, 9660, -769, 285, -64
7421, 375, 710, 281, -10920, -3780, 7140, -781, 285, -64
7422, 407, 555, 285, -13020, -8750, 4130, -772, 285, -54
7423, 358, 430, 226, -13790, -2870, 3150, -769, 280, -61
7424, 229, 158, 228, -10220, 6020, 1820, -774, 288, -58
7425, 190, 104, 317, -5320, -1820, 140, -771, 276, -63
7426, 249, 457, 497, -70, 4480, 700, -774, 271, -57
7427, 293, 981, 369, 7280, -2870, 1680, -778, 277, -64
7428, 399, 1232, 389, 11550, -4690, 4340, -786, 280, -52
7429, 387, 944, 357, 11900, -26180, 5530, -772, 264, -66
7430, 462, 1188, 305, 8470, -29750, 4340, -772, 267, -72
7431, 639, 1548, 299, 5180, -31850, 3010, -771, 271, -63
7432, 638, 1419, 254, 980, -16520, 3080, -780, 276, -52
7433, 517, 936, 261, -1540, -5460, 350, -778, 279, -48
7434, 515, 571, 272, -3500, -770, -910, -778, 274, -58
7435, 580, 690, 212, -2870, 1890, -1400, -775, 276, -51
7436, 578, 746, 240, -2870, 12390, -770, -774, 274, -55
7437, 478, 677, 221, -2800, 16380, -840, -771, 270, -55
7438, 349, 605, 410, -4130, 24990, -2100, -772, 265, -57
7439, 414, 859, 518, -1750, 18550, -3920, -777, 279, -66
7440, 394, 1095, 470, 560, 26040, -2800, -772, 267, -55
7441, 346, 950, 423, 5320, 20510, -2240, -771, 274, -64
7442, 211, 526, 412, 9170, 22330, -840, -777, 274, -55
7443, 221, 442, 304, 16870, 5600, -1820, -777, 271, -61
7444, 311, 602, 236, 18620, -6860, -2940, -775, 276, -64
7445, 326, 685, 207, 16590, -4270, -2450, -777, 271, -61
7446, 391, 758, 260, 14490, -15750, -4620, -775, 276, -57
7447, 513, 996, 333, 5530, -16380, -7770, -775, 270, -58
7448, 746, 1641, 365, -840, 3920, -6860, -778, 273, -66
7449, 702, 1580, 309, -4480, 8610, -7840, -775, 277, -55
7450, 590, 1335, 321, -9450, 23030, -7910, -774, 276, -60
7451, 447, 1076, 303, -12320, 22610, -10080, -775, 277, -66
7452, 546, 1097, 409, -13510, 23870, -11970, -769, 270, -66
7453, 408, 900, 419, -12320, 29400, -11200, -777, 270, -67
7454, 290, 679, 471, -7350, 21070, -11550, -768, 270, -73
7455, 237, 593, 401, -1190, 17360, -11130, -772, 279, -61
7456, 117, 517, 227, 6440, 10150, -10570, -772, 273, -73
7457, 90, 346, 141, 16240, -2870, -10710, -766, 282, -76
7458, 123, 317, 201, 16100, -6370, -11900, -769, 273, -69
7459, 149, 427, 170, 14560, -11970, -13300, -772, 277, -69
7460, 327, 714, 239, 13300, -17290, -14490, -769, 277, -69
7461, 349, 951, 168, 10290, -13440, -12950, -775, 288, -61
7462, 388, 1081, 233, 8330, -6370, -11130, -771, 288, -63
7463, 404, 1050, 308, 7840, -5740, -10570, -768, 279, -61
7464, 366, 1082, 273, 8120, -630, -9030, -766, 285, -55
7465, 365, 1133, 314, 10080, -490, -7980, -768, 286, -69
7466, 239, 846, 217, 14840, -980, -5670, -768, 276, -58
7467, 203, 726, 166, 15190, 1400, -4900, -766, 288, -57
7468, 299, 812, 226, 14700, -1890, -5460, -763, 282, -54
7469, 368, 1222, 159, 12180, -350, -4760, -772, 283, -51
7470, 554, 1601, 245, 9240, -4410, -4620, -763, 298, -57
7471, 395, 1158, 291, 1470, 3500, -3290, -775, 282, -61
7472, 364, 927, 339, -350, 10080, -2870, -765, 298, -61
7473, 286, 716, 297, 1540, 12670, -2380, -774, 291, -66
7474, 224, 511, 212, 5810, 18200, -560, -769, 294, -55
7475, 120, 399, 155, 15890, 21770, 3780, -772, 292, -60
7476, 157, 435, 198, 17500, 22470, 5250, -775, 291, -54
7477, 180, 811, 144, 16310, 19390, 6510, -774, 294, -55
7478, 430, 1448, 250, 14070, 6580, 6790, -765, 294, -54
7479, 482, 1862, 314, 7140, 17080, 9450, -780, 294, -60
7480, 271, 1124, 346, -5600, 11620, 9100, -771, 283, -58
7481, 159, 720, 259, -8960, 13300, 8470, -771, 286, -63
7482, 278, 620, 248, -7840, 9100, 7700, -777, 291, -60
7483, 349, 630, 192, -5880, 25130, 10640, -790, 291, -64
7484, 375, 580, 188, -2310, 30800, 13440, -781, 288, -60
7485, 150, 692, 316, -1120, 39550, 18480, -769, 285, -67
7486, 243, 1056, 433, -140, 29890, 18690, -768, 283, -63
7487, 170, 1253, 297, 840, 33880, 20930, -777, 289, -75
7488, 223, 1231, 333, 5110, 23870, 21840, -777, 294, -73
7489, 248, 851, 303, 8750, 21840, 25200, -786, 277, -73
7490, 253, 867, 256, 10220, 8330, 25690, -778, 280, -69
7491, 257, 892, 257, 10290, 6300, 27370, -787, 280, -76
7492, 198, 856, 137, 11480, -7420, 27860, -781, 276, -67
7493, 257, 901, 190, 11830, -13160, 28350, -777, 273, -70
7494, 352, 974, 241, 7070, -23380, 26670, -784, 271, -67
7495, 269, 945, 181, 1120, -22260, 25270, -774, 273, -72
7496, 354, 948, 250, -2730, -34370, 21840, -784, 273, -64
7497, 358, 973, 204, -7000, -28210, 20440, -772, 271, -66
7498, 407, 905, 201, -8330, -35000, 17990, -792, 265, -61
7499, 574, 880, 135, -11130, -32270, 16450, -784, 265, -75
7500, 803, 1151, 208, -12320, -27300, 16590, -789, 268, -63
7501, 734, 1197, 241, -16520, -4690, 18130, -787, 262, -69
7502, 596, 1084, 244, -19040, -4690, 16660, -790, 267, -67
7503, 345, 516, 369, -21630, 7910, 13930, -780, 265, -58
7504, 250, 349, 380, -15820, 5950, 12250, -793, 262, -66
7505, 254, 646, 284, -5950, 3570, 11900, -780, 265, -70
7506, 356, 1023, 244, 3780, 3430, 12950, -790, 264, -70
7507, 417, 1102, 203, 9590, 3710, 14630, -787, 246, -72
7508, 415, 792, 228, 5250, -13650, 13650, -793, 258, -66
7509, 446, 847, 205, 770, -25830, 11060, -786, 255, -81
7510, 535, 1024, 225, -2590, -29960, 9170, -790, 259, -57
7511, 488, 914, 175, -5880, -31010, 7700, -795, 259, -67
7512, 335, 641, 202, -10150, -31570, 5810, -789, 259, -70
7513, 264, 554, 172, -15750, -54530, -1540, -790, 250, -61
7514, 397, 882, 91, -16660, -57260, -3570, -787, 256, -54
7515, 595, 1100, 185, -17640, -53480, -4130, -784, 256, -49
7516, 567, 975, 198, -20160, -39340, -2870, -780, 252, -60
7517, 571, 1154, 346, -21140, -26880, -2100, -783, 253, -51
7518, 685, 1585, 406, -17570, -23870, -2100, -792, 255, -60
7519, 666, 1779, 276, -14770, -4200, 1120, -793, 246, -55
7520, 693, 1581, 306, -10850, -1190, 2240, -783, 259, -52
7521, 490, 1081, 214, -10570, 15540, 4480, -786, 258, -49
7522, 377, 528, 226, -7980, 10710, 2310, -789, 255, -51
7523, 408, 485, 286, -5460, 6300, 1260, -784, 256, -54
7524, 243, 301, 105, -3360, 11200, 1890, -792, 259, -58
7525, 195, 192, 168, 630, 3080, 490, -790, 252, -54
7526, 145, 128, 45, 2310, 2170, 0, -790, 259, -57
7527, 287, 340, 65, 2590, 3360, -560, -793, 259, -70
7528, 530, 647, 152, 4830, -16730, -2380, -784, 250, -55
7529, 638, 1440, 15, 2240, -420, 1190, -784, 256, -61
7530, 998, 2195, 143, 1120, -24640, 420, -789, 249, -60
7531, 460, 1493, 317, -21700, 8260, 1750, -789, 247, -57
7532, 441, 1071, 399, -26670, -4690, -2800, -787, 265, -55
7533, 399, 821, 271, -27650, 5530, -4550, -784, 267, -55
7534, 330, 592, 127, -22680, 8470, -4970, -787, 264, -64
7535, 389, 274, 275, -16310, 14210, -4620, -784, 253, -70
7536, 246, -74, 477, -6020, 19670, -4270, -789, 261, -82
7537, 423, 539, 428, 210, 24430, -2380, -786, 259, -64
7538, 513, 1147, 325, 6790, 24010, 980, -787, 255, -72
7539, 434, 1133, 296, 10640, 22190, 5390, -796, 261, -66
7540, 372, 724, 410, 11550, 7910, 7630, -795, 261, -69
7541, 294, 772, 294, 8190, -25410, 3430, -789, 264, -75
7542, 365, 1062, 297, 4200, -6440, 4760, -790, 256, -70
7543, 285, 966, 160, 4900, -16870, 2870, -793, 265, -67
7544, 373, 696, 326, 3150, -11550, 2590, -793, 264, -72
7545, 538, 1071, 334, -1260, -20510, 420, -795, 271, -67
7546, 726, 1726, 268, -3150, -23520, 700, -792, 264, -58
7547, 771, 1877, 378, -7280, -7700, 3150, -795, 261, -66
7548, 559, 1469, 298, -11060, -1260, 3640, -787, 267, -63
7549, 572, 976, 449, -12880, -1960, 1960, -795, 259, -60
7550, 549, 710, 315, -13160, 16940, 1960, -790, 267, -60
7551, 495, 661, 257, -12110, 21420, 3010, -795, 268, -64
7552, 310, 406, 273, -12600, 28210, 3990, -793, 255, -70
7553, 174, 215, 168, -12250, 17220, 2520, -790, 268, -64
7554, 318, 303, 315, -14560, 14700, 1050, -798, 265, -76
7555, 361, 749, 354, -14000, 8960, 630, -798, 255, -66
7556, 274, 734, 480, -13160, 15750, 2380, -792, 252, -72
7557, 377, 862, 636, -7140, 3010, 2730, -796, 252, -70
7558, 432, 1279, 522, -1470, 10710, 6090, -792, 247, -66
7559, 263, 832, 337, 8190, 5250, 11760, -796, 253, -66
7560, 186, 422, 415, 7700, 6580, 12670, -798, 253, -87
7561, 118, 366, 201, 7490, -10080, 11340, -789, 249, -64
7562, 329, 594, 294, 7000, -17430, 10360, -796, 247, -75
7563, 181, 838, 87, 4970, -9380, 11760, -795, 250, -79
7564, 289, 905, 194, -840, -13300, 11970, -790, 252, -67
7565, 346, 839, 235, -3990, -33950, 9380, -792, 243, -75
7566, 411, 1077, 254, -9170, -27650, 10080, -804, 256, -60
7567, 497, 1281, 291, -10080, -35420, 9520, -789, 244, -70
7568, 477, 1127, 397, -7910, -18550, 12460, -798, 252, -54
7569, 308, 602, 366, -2240, -15050, 13720, -789, 243, -67
7570, 349, 677, 270, 5250, -16870, 14420, -802, 250, -72
7571, 290, 814, 155, 9870, -350, 17430, -801, 249, -61
7572, 473, 821, 107, 15050, -18130, 16450, -798, 238, -54
7573, 503, 793, 148, 7280, -15680, 17850, -798, 247, -69
7574, 707, 1002, 382, -70, -7070, 19670, -802, 238, -57
7575, 468, 901, 73, -4060, -10920, 20650, -804, 234, -63
7576, 363, 778, 224, -5670, -12110, 20790, -808, 249, -66
7577, 165, 710, -35, -6300, -20860, 19460, -802, 243, -63
7578, 228, 635, 111, -12530, -14420, 16240, -808, 235, -55
7579, 559, 791, 347, -9100, -46760, 10850, -796, 240, -60
7580, 595, 1300, 207, -11550, -16380, 14630, -801, 232, -52
7581, 923, 1755, 290, -6370, -48440, 13090, -802, 229, -66
7582, 991, 1549, 498, -6790, -9170, 19670, -805, 237, -54
7583, 852, 1422, 406, -2870, -9520, 20160, -807, 229, -58
7584, 610, 1256, 226, -1400, 12460, 22400, -802, 229, -55
7585, 346, 702, 140, 1960, 2520, 20790, -807, 222, -57
7586, 247, 111, 228, 1960, 3640, 18760, -805, 231, -54
7587, 344, 122, 196, 2030, -8680, 11900, -804, 229, -60
7588, 486, 493, 108, 3920, -8960, 11060, -805, 228, -51
7589, 552, 811, 79, 5530, -4060, 12250, -808, 222, -60
7590, 636, 877, 121, 5670, -9450, 12740, -804, 223, -54
7591, 705, 848, 226, 1960, -4760, 13860, -805, 223, -61
7592, 907, 1199, 326, -3710, -70, 15260, -802, 232, -55
7593, 713, 1378, 195, -4270, 12040, 17010, -802, 228, -57
7594, 565, 1100, 257, -3360, 14630, 16940, -811, 228, -67
7595, 356, 601, 220, -3080, 21280, 16590, -805, 226, -57
7596, 351, 414, 257, -700, 14070, 13860, -811, 223, -67
7597, 285, 479, 156, 3360, 280, 11970, -801, 225, -67
7598, 289, 837, 129, 6020, 1960, 12180, -801, 222, -60
7599, 537, 1024, 77, 9170, -21770, 10640, -811, 219, -60
7600, 833, 1061, 366, 5460, -13790, 12040, -796, 226, -67
7601, 773, 1102, 399, -1050, -36820, 10500, -810, 219, -67
7602, 457, 997, 179, -4830, -11060, 12460, -810, 234, -57
7603, 465, 819, 107, -700, -39760, 8050, -816, 223, -52
7604, 567, 645, 195, -2100, -24850, 7910, -802, 226, -46
7605, 539, 647, 187, -3360, -29400, 4970, -810, 226, -58
7606, 467, 436, 266, -10920, -27160, -70, -805, 226, -45
7607, 371, 347, 164, -11690, -32550, -3360, -813, 225, -52
7608, 346, 343, 119, -10150, -35070, -6860, -816, 225, -40
7609, 356, 264, 79, -8400, -33880, -9870, -807, 225, -40
7610, 363, 214, 74, -7210, -16450, -15330, -799, 220, -33
7611, 570, 350, 230, -3570, -19250, -18760, -807, 220, -36
7612, 422, 433, 187, -2590, 14770, -16310, -808, 232, -37
7613, 352, 376, 382, 5250, 7980, -17010, -804, 241, -39
7614, 518, 879, 433, 14490, 11690, -15260, -808, 223, -39
7615, 1920, 2961, 251, 32830, -78190, 350, -804, 223, -36
7616, 1419, 2122, 595, 14490, 21910, 15610, -810, 216, -34
7617, 133, 920, -67, 1890, 20720, 14140, -801, 217, -37
7618, 274, 451, 332, 1820, -59430, 1470, -805, 217, -21
7619, 591, 952, 373, -4410, -20370, -1400, -804, 222, -25
7620, 719, 1151, 100, 4690, -12950, -4900, -808, 226, -30
7621, 516, 396, 143, 1330, 34090, -140, -789, 217, -22
7622, 420, -33, 186, 1260, 9730, -4060, -799, 219, -31
7623, 561, 95, 316, -3430, 19880, -4060, -805, 222, -34
7624, 479, 836, 39, -1960, 23450, -2800, -807, 222, -46
7625, 461, 743, 66, -560, 20790, -1750, -801, 222, -28
7626, 425, 433, 151, -4340, 19530, -630, -799, 214, -33
7627, 507, 535, 252, -9100, 2520, -1820, -810, 217, -31
7628, 573, 1130, 333, -13790, 420, -770, -801, 217, -30
7629, 468, 1436, 355, -12670, 8540, 3850, -810, 214, -37
7630, 281, 762, 259, -9240, -5530, 3780, -811, 213, -39
7631, 277, 321, 317, -8050, -13930, 2870, -798, 222, -34
7632, 252, 336, 233, -7910, -22260, 910, -798, 222, -40
7633, 383, 443, 142, -7420, -34860, -1890, -802, 223, -45
7634, 345, 509, 20, -7210, -37100, -4690, -807, 220, -30
7635, 574, 569, 253, -7980, -33110, -5460, -810, 226, -36
7636, 622, 714, 79, -9520, -26530, -4830, -804, 223, -31
7637, 914, 1125, 241, -9800, -29820, -4130, -804, 223, -28
7638, 1090, 1545, 566, -5950, 5810, 3290, -807, 223, -37
7639, 758, 1619, 281, 280, 25340, 6720, -808, 213, -28
7640, 613, 1270, 285, 9380, 11690, 6510, -807, 219, -22
7641, 364, 541, 238, 12950, 26250, 8120, -801, 216, -40
7642, 127, 120, 101, 16590, 10640, 4760, -808, 223, -42
7643, 601, 440, 182, 14420, -3920, -420, -802, 223, -31
7644, 736, 926, 166, 11830, -910, 420, -799, 219, -39
7645, 693, 1040, 192, 8470, 1610, 2100, -802, 216, -28
7646, 482, 745, 193, 4550, -770, 2520, -810, 217, -27
7647, 388, 470, 247, 1820, -11970, -2310, -807, 216, -30
7648, 720, 962, 245, -630, -11690, -2870, -801, 219, -22
7649, 840, 1305, 204, -770, -5390, -2380, -808, 222, -28
7650, 908, 1255, 260, -3080, 8120, -630, -802, 217, -28
7651, 837, 891, 250, -6020, 18690, 630, -810, 222, -24
7652, 765, 677, 194, -7770, 48650, 3290, -807, 219, -40
7653, 757, 1202, 22, -4410, 47740, 3570, -810, 211, -34
7654, 712, 1662, 72, -5740, 64400, 5880, -807, 219, -40
7655, 564, 1402, 106, -10150, 62300, 5040, -804, 229, -52
7656, 492, 863, 313, -16800, 60830, 3360, -817, 225, -60
7657, 486, 491, 539, -11130, 38080, -140, -814, 219, -64
7658, 200, 839, 413, -3360, 91630, 10080, -816, 220, -67
7659, 163, 729, 73, 15050, 33950, 7630, -813, 219, -79
7660, -49, 354, 233, 19530, 76790, 15890, -811, 226, -72
7661, -68, -110, 230, 16870, 34160, 8820, -814, 223, -67
7662, 10, 55, -135, 16380, -39060, -1610, -816, 226, -64
7663, 318, 594, 375, 9310, -20020, -1260, -808, 223, -69
7664, 23, 641, -329, 8820, -52430, -3500, -820, 226, -58
7665, 661, 860, 505, 7700, -85260, -5390, -808, 222, -54
7666, 992, 1094, 537, -9240, -107030, -2870, -808, 222, -51
7667, 717, 1161, 55, -21070, -97580, -140, -804, 226, -43
7668, 963, 1316, 614, -22820, -115640, -3850, -808, 222, -34
7669, 536, 1087, -83, -27160, -63140, 490, -811, 226, -25
7670, 910, 982, 330, -17640, -91910, -5670, -808, 235, -31
7671, 895, 1048, 355, -17080, -35420, -3290, -811, 229, -28
7672, 853, 1124, 192, -21140, -3430, -840, -805, 225, -27
7673, 869, 1301, 314, -21350, -840, -2730, -804, 219, -22
7674, 703, 1170, 122, -23730, 18270, -1680, -801, 232, -25
7675, 645, 1072, 320, -23870, 35490, -2170, -805, 217, -30
7676, 381, 411, 523, -17570, 22260, -4410, -816, 222, -31
7677, 429, 575, 329, -6440, 24220, -4480, -807, 219, -33
7678, 403, 817, 269, 6650, 25130, -840, -808, 223, -24
7679, 456, 776, 233, 20370, 7000, -70, -811, 222, -30
7680, 352, -113, 197, 27300, -30730, -3220, -807, 226, -33
7681, 267, -118, 234, 14210, 0, -1120, -811, 220, -25
7682, 827, 558, 164, 16100, -82950, -11970, -813, 226, -24
7683, 1010, 1496, 184, 5320, -23590, -3220, -807, 225, -18
7684, 888, 1756, -81, 7490, -64260, -6650, -805, 228, -18
7685, 444, 539, 128, -5600, -55720, -10010, -807, 223, -21
7686, 759, 620, 431, -11200, -52360, -13650, -804, 219, -12
7687, 811, 1119, 157, -12320, -42910, -16450, -804, 219, -13
7688, 644, 1236, 191, -12810, -15960, -15120, -802, 231, -4
7689, 586, 759, 125, -8680, 4480, -16450, -796, 225, -13
7690, 594, -119, 218, -5950, 210, -19180, -802, 220, 1
7691, 684, 238, 324, -5180, 22120, -17570, -804, 211, -12
7692, 650, 732, 99, -1190, 25410, -16940, -793, 223, -21
7693, 617, 871, 175, -210, 41510, -13580, -807, 228, -21
7694, 493, 376, 325, -4130, 32900, -13090, -799, 235, -16
7695, 494, 475, 216, -7070, 24780, -14350, -802, 229, -25
7696, 458, 787, 312, -10150, 32200, -13510, -790, 225, -22
7697, 175, 975, 246, -9240, 29890, -12460, -799, 229, -21
7698, 550, 1622, 436, -1820, 1750, -14490, -798, 229, -25
7699, 909, 2193, 424, -4550, 14350, -5810, -801, 231, -27
7700, 609, 1562, 363, -10850, 22050, -3570, -802, 243, -33
7701, 442, 1313, 132, -11130, -9310, -7700, -801, 228, -33
7702, 623, 1273, 244, -11410, -13720, -10080, -796, 235, -31
7703, 542, 763, 316, -7910, -1400, -11410, -801, 240, -27
7704, 471, -431, 137, -5390, 21840, -10360, -796, 237, -30
7705, 542, -359, 366, 2030, 29190, -12320, -796, 238, -40
7706, 438, -61, 46, 8400, 57680, -10920, -802, 234, -40
7707, 550, 206, 158, 16380, 58940, -12320, -796, 238, -39
7708, 975, 679, 304, 19600, 44660, -11760, -798, 240, -42
7709, 946, 923, 258, 10570, 75950, -6650, -799, 231, -43
7710, 976, 1145, 309, 7070, 49630, -8330, -799, 244, -43
7711, 962, 1102, 423, 980, 70700, -5320, -799, 234, -54
7712, 666, 732, 378, 2940, 78750, -4830, -810, 232, -72
7713, 248, 713, 322, 16800, 97090, -3500, -799, 234, -60
7714, 235, 699, 357, 22190, 83370, -4200, -807, 231, -72
7715, 178, 747, 198, 24080, 67270, -3570, -802, 237, -85
7716, 521, 741, 267, 24780, 24080, -4830, -795, 241, -82
7717, 250, 685, 130, 11900, 19880, -2660, -802, 243, -93
7718, 414, 627, 438, 8820, -3010, -6370, -798, 243, -85
7719, 226, 612, 122, 4410, 7560, -5950, -810, 243, -84
7720, 412, 694, 287, 7140, -14630, -9240, -795, 243, -78
7721, 245, 579, 115, 5530, 10080, -5950, -805, 243, -84
7722, 86, 371, 180, 6020, 420, -6650, -808, 240, -75
7723, 358, 910, 254, 9800, -32830, -10150, -807, 253, -75
7724, 511, 1446, 169, 5950, -12250, -5740, -801, 244, -76
7725, 664, 1714, 248, 3710, -32550, -6160, -801, 253, -76
7726, 458, 1602, 345, -8190, -10360, -3150, -801, 249, -69
7727, 302, 956, 453, -22330, -35700, -10080, -795, 255, -75
7728, 169, 639, 166, -21840, -42840, -12810, -801, 252, -61
7729, 174, 397, 232, -18060, -40810, -12880, -802, 256, -72
7730, 61, 118, 201, -12180, -43260, -13580, -795, 253, -60
7731, 280, 620, 273, 5180, -62090, -17010, -804, 255, -63
7732, 815, 1539, 259, 12600, -63630, -14630, -799, 249, -51
7733, 975, 1865, 166, 14560, -48020, -9170, -798, 247, -48
7734, 874, 1627, 194, 11830, -35140, -5040, -799, 253, -42
7735, 660, 1285, 221, 3150, -32200, -5810, -799, 256, -30
7736, 568, 1191, 239, -10640, -44590, -14840, -793, 255, -39
7737, 563, 1130, 142, -13790, -17570, -14350, -798, 253, -34
7738, 389, 705, -84, -10430, -23590, -16100, -793, 249, -39
7739, 497, 520, 263, -9100, -25550, -17500, -795, 246, -34
7740, 425, 495, 115, -12390, -18270, -18130, -798, 249, -25
7741, 732, 1045, 150, -18970, -9800, -20510, -790, 258, -39
7742, 694, 1028, 283, -19320, -7070, -21630, -796, 252, -37
7743, 513, 697, 216, -19740, 12390, -20510, -784, 256, -33
7744, 421, 371, 344, -15330, 12880, -21630, -789, 258, -39
7745, 508, 1036, 466, 700, 34720, -19670, -789, 253, -37
7746, 611, 1345, 257, 10920, 20160, -18480, -790, 247, -34
7747, 552, 1043, 311, 13020, 40810, -13440, -787, 259, -40
7748, 258, 453, 82, 14210, 19880, -14560, -783, 268, -40
7749, 348, 234, 400, 9380, 9520, -16870, -784, 261, -40
7750, 552, 1455, 144, 840, 3430, -21910, -783, 261, -39
7751, 753, 1563, 149, 210, -7280, -23450, -781, 265, -43
7752, 524, 964, 224, -6230, 27510, -19390, -775, 267, -42
7753, 379, 313, 247, -6650, -210, -23380, -784, 264, -51
7754, 439, 209, 341, -10920, 15820, -25270, -784, 273, -40
7755, 542, 1288, 175, -8400, 14070, -23660, -780, 259, -54
7756, 473, 1442, 186, -8470, 12600, -24080, -787, 270, -42
7757, 518, 1078, 466, -11060, 15680, -24360, -778, 274, -49
7758, 556, 746, 487, -10780, 15330, -26180, -775, 268, -51
7759, 555, 1030, 311, 1610, 13580, -24990, -772, 268, -45
7760, 150, 717, 169, 5880, 52290, -19040, -777, 273, -54
7761, 12, 198, 9, 17080, 15050, -21630, -778, 271, -51
7762, 359, -100, 385, 18550, 28490, -21140, -774, 280, -51
7763, 54, -76, 11, 16100, 42420, -19880, -771, 276, -55
7764, 401, 963, 8, 14280, 39410, -17850, -781, 282, -51
7765, 534, 1163, 111, 14910, 8260, -18620, -775, 282, -45
7766, 568, 1310, 182, 7770, 26180, -14140, -768, 277, -55
7767, 535, 1504, 319, 4690, 10570, -15190, -763, 283, -54
7768, 549, 1779, 432, 210, 24290, -15470, -772, 279, -52
7769, 364, 1283, 297, 2310, 22120, -15750, -777, 279, -58
7770, 231, 358, 154, 2730, 33810, -14140, -762, 280, -60
7771, 111, -35, 201, 3920, 22120, -15610, -775, 277, -67
7772, 191, 99, 200, 3220, 13580, -16730, -771, 289, -58
7773, 152, 728, 84, 3150, 14560, -15680, -768, 280, -63
7774, 387, 944, 238, 7280, -3220, -15400, -771, 286, -78
7775, 281, 925, 215, 5460, 21840, -10640, -771, 289, -67
7776, 222, 870, 237, 6440, 1540, -11830, -772, 294, -57
7777, 298, 918, 449, 3570, 10640, -11410, -772, 282, -67
7778, 510, 1491, 327, 5460, -4970, -13090, -774, 297, -58
7779, 479, 1144, 261, 2520, 18620, -9170, -766, 291, -75
7780, 191, 419, 235, 1400, 8610, -8890, -766, 294, -60
7781, 211, 156, 350, 490, -70, -10430, -774, 300, -64
7782, 163, 517, 153, 2870, -9100, -12180, -771, 295, -60
7783, 421, 1121, 221, 2100, 17640, -8470, -768, 291, -63
7784, 337, 897, 314, 3150, 13930, -8470, -768, 289, -67
7785, 253, 906, 389, 560, 18480, -8610, -765, 297, -64
7786, 308, 1340, 362, 70, 5810, -11130, -768, 300, -55
7787, 592, 1780, 364, 4620, 12320, -9870, -769, 301, -72
7788, 474, 1303, 325, 7000, 22470, -7000, -765, 300, -70
7789, 338, 568, 305, 10080, 16940, -6720, -766, 301, -66
7790, 133, 195, 211, 10570, 20440, -6300, -768, 298, -61
7791, 150, 232, 109, 12040, 2590, -8680, -762, 298, -64
7792, 293, 733, 0, 11690, 5460, -8890, -762, 298, -66
7793, 526, 1005, 193, 11270, 3990, -9380, -759, 298, -60
7794, 417, 1093, 150, 6370, 25480, -7980, -774, 301, -58
7795, 520, 1087, 244, 4410, 11900, -11270, -757, 294, -61
7796, 645, 1250, 289, -3010, 26250, -13230, -763, 300, -60
7797, 788, 1517, 334, -5880, 39900, -13230, -768, 295, -60
7798, 457, 1161, 251, -9170, 56420, -13090, -756, 301, -69
7799, 423, 700, 476, -8680, 41510, -16730, -762, 301, -64
7800, 278, 409, 398, -8050, 53550, -16660, -759, 303, -72
7801, 223, 787, 171, 6720, 51240, -14070, -760, 298, -70
7802, 176, 631, 160, 16100, 32340, -14000, -762, 301, -72
7803, 116, 411, 200, 17710, 44800, -11060, -757, 303, -73
7804, 154, 361, 173, 19880, 18970, -13860, -759, 307, -76
7805, 307, 831, 188, 17010, 21700, -13790, -756, 300, -75
7806, 557, 1779, 203, 12180, 17780, -14420, -763, 306, -70
7807, 439, 1536, 216, 7770, 15120, -16240, -757, 312, -72
7808, 344, 1071, 266, 2100, 18970, -18410, -754, 295, -84
7809, 411, 841, 296, -770, 7840, -23310, -756, 295, -75
7810, 360, 790, 230, -700, 11970, -25900, -748, 300, -81
7811, 238, 671, 246, 2170, 22190, -24010, -759, 306, -79
7812, 110, 507, 180, 7700, 16800, -23030, -754, 306, -75
7813, 46, 346, 187, 11270, 16240, -21140, -751, 309, -81
7814, -4, 322, 125, 13440, 10360, -20370, -753, 312, -78
7815, 38, 595, 91, 12040, -4200, -21280, -748, 310, -88
7816, 158, 1003, 96, 9310, -7420, -22330, -744, 306, -79
7817, 353, 1492, 266, 6020, -10570, -24710, -751, 301, -85
7818, 262, 1673, 255, 70, 2100, -25550, -750, 316, -81
7819, 401, 1770, 320, -2100, -17850, -30380, -741, 312, -79
7820, 524, 1376, 288, -8120, -14630, -32340, -742, 309, -76
7821, 493, 1130, 367, -8330, -4970, -31010, -745, 313, -73
7822, 367, 1095, 208, -3920, -8400, -30730, -741, 321, -70
7823, 321, 1080, 198, 280, -2660, -29540, -745, 321, -72
7824, 108, 440, 121, 5180, -6300, -30380, -736, 315, -72
7825, 115, 301, 97, 2940, 4480, -30380, -744, 315, -66
7826, 151, 325, 89, 2450, -3360, -32270, -733, 321, -88
7827, 232, 476, 118, 1540, 2240, -32340, -745, 321, -78
7828, 168, 629, 52, 1400, 4690, -32270, -738, 324, -73
7829, 250, 662, 217, 2100, 11900, -31850, -724, 327, -72
7830, 254, 837, 228, 3360, 13020, -32340, -733, 334, -76
7831, 323, 1003, 318, 5110, 18970, -32410, -735, 328, -73
7832, 250, 1054, 298, 6860, 30800, -31780, -729, 324, -67
7833, 225, 965, 279, 9450, 30170, -32410, -730, 325, -75
7834, 106, 454, 255, 13860, 41160, -32830, -730, 328, -69
7835, 160, 427, 329, 20230, 38080, -33950, -729, 340, -73
7836, 158, 762, 248, 27230, 42350, -33250, -727, 334, -81
7837, 201, 986, 221, 34230, 34020, -33040, -720, 348, -79
7838, 131, 1081, 112, 36050, 31920, -33670, -709, 342, -76
7839, 196, 1806, 61, 29540, 28000, -36400, -720, 343, -63
7840, 307, 2823, -35, 18130, 19880, -40180, -723, 336, -75
7841, 323, 2966, -61, 2730, 20860, -43120, -723, 345, -72
7842, 302, 2053, -72, -10080, 12040, -46480, -712, 349, -76
7843, 242, 774, 37, -23870, 15610, -47250, -712, 343, -70
7844, 159, 493, 150, -22610, 14070, -46410, -712, 357, -76
7845, -30, 218, 159, -17500, 17220, -45080, -711, 349, -87
7846, -85, 46, 221, -9170, 7140, -45010, -715, 355, -82
7847, 3, 2, 349, -1610, 5530, -44730, -709, 355, -81
7848, 7, 285, 183, 12040, 1750, -43610, -700, 361, -82
7849, -26, 350, 86, 14840, 18970, -41230, -699, 354, -79
7850, 37, 460, 67, 18830, 8960, -42630, -706, 361, -78
7851, 37, 869, 113, 17220, 28350, -41650, -699, 355, -76
7852, 127, 2041, 254, 12530, 39970, -45080, -703, 364, -73
7853, -26, 1830, 155, 9030, 42000, -47180, -697, 369, -79
7854, 150, 1325, 350, 7210, 37170, -49000, -687, 366, -79
7855, 60, 899, 164, 5880, 50050, -47040, -682, 367, -72
7856, 44, 632, 147, 9240, 43750, -45430, -688, 367, -70
7857, -176, 251, 147, 14420, 52290, -39480, -688, 372, -82
7858, -232, 310, 82, 15750, 50260, -37660, -682, 378, -66
7859, -127, 671, 136, 17710, 44450, -37100, -679, 366, -75
7860, -152, 1232, 109, 18690, 50330, -35840, -678, 373, -66
7861, -127, 1817, 180, 20930, 44660, -37240, -681, 369, -78
7862, 30, 1712, 237, 19180, 42280, -40320, -675, 381, -69
7863, 32, 1216, 148, 15750, 52290, -39480, -673, 372, -72
7864, 10, 828, 70, 14350, 52640, -38780, -676, 385, -72
7865, -104, 521, -19, 13090, 62650, -35770, -664, 379, -76
7866, -200, 242, 0, 12950, 66010, -31290, -670, 372, -69
7867, -124, 271, 70, 13440, 53130, -31290, -670, 378, -75
7868, -181, 335, 52, 11480, 61530, -29120, -655, 373, -79
7869, -90, 399, 209, 14140, 44660, -30310, -666, 376, -78
7870, -125, 589, 335, 16170, 58100, -28070, -663, 378, -66
7871, -62, 2013, 273, 31220, 62930, -27020, -654, 376, -72
7872, -116, 1858, 143, 37940, 57540, -28420, -649, 385, -67
7873, -203, 1298, 133, 36050, 76090, -27930, -649, 373, -75
7874, -227, 906, -24, 32900, 59500, -31220, -657, 379, -69
7875, -39, 855, 15, 26110, 61600, -27650, -652, 384, -73
7876, -40, 803, -79, 23590, 79240, -22120, -651, 375, -79
7877, -229, 634, -100, 24920, 73780, -20300, -655, 378, -70
7878, -268, 606, 51, 23240, 76440, -19810, -645, 373, -67
7879, -279, 927, -52, 23800, 68390, -20860, -648, 372, -66
7880, -197, 1636, -132, 31010, 90510, -18060, -646, 376, -69
7881, -274, 1268, -78, 36960, 78540, -19460, -640, 375, -73
7882, -328, 924, -87, 36680, 87640, -19180, -640, 381, -61
7883, -250, 837, -92, 35490, 75600, -21420, -642, 373, -66
7884, -184, 865, -141, 30940, 82460, -20020, -642, 387, -64
7885, -120, 669, -126, 28420, 85960, -15260, -642, 376, -64
7886, -215, 520, -132, 27580, 79870, -14560, -642, 370, -58
7887, -240, 586, -96, 24780, 80780, -14210, -637, 375, -67
7888, -178, 850, -108, 24360, 70630, -15890, -642, 384, -60
7889, -183, 1134, -42, 25200, 68040, -18480, -634, 372, -72
7890, -295, 1476, 7, 26250, 55230, -21980, -637, 385, -57
7891, -283, 1575, -112, 25760, 42000, -25900, -631, 373, -70
7892, -11, 1553, -109, 25340, 23870, -30660, -640, 385, -57
7893, 108, 1363, -156, 21840, 27930, -32690, -634, 382, -60
7894, 61, 886, -153, 14700, 21350, -37800, -624, 378, -57
7895, 155, 929, -89, 12180, 13300, -40740, -630, 378, -76
7896, 137, 958, -134, 10150, 16590, -42140, -622, 382, -58
7897, 94, 832, -42, 9940, 12880, -44800, -627, 379, -67
7898, -93, 673, -68, 8680, 15190, -47040, -621, 385, -52
7899, -51, 706, 38, 11060, 630, -54320, -618, 385, -57
7900, -34, 741, 33, 16310, -7210, -57680, -612, 388, -64
7901, -111, 647, 50, 20930, 2240, -59010, -612, 387, -54
7902, -223, 502, -14, 27020, -5110, -62790, -600, 381, -58
7903, -213, 486, -1, 33600, -8820, -71610, -600, 397, -52
7904, -86, 618, -42, 36190, -7210, -76090, -583, 379, -63
7905, -51, 618, -57, 38290, -1890, -79940, -595, 390, -43
7906, 1, 612, -2, 40600, 1750, -83790, -589, 391, -43
7907, 38, 631, 3, 42490, 6090, -87290, -577, 379, -34
7908, 111, 693, 34, 47180, 20090, -93100, -576, 382, -33
7909, 63, 650, 51, 50260, 27510, -95970, -579, 390, -30
7910, -39, 583, 4, 53060, 33250, -99260, -577, 388, -24
7911, -67, 545, 2, 56210, 33250, -103460, -558, 393, -27
7912, -112, 541, -39, 58660, 37310, -107310, -556, 384, -15
7913, -194, 494, -66, 63210, 37240, -115990, -552, 387, -22
7914, -210, 505, -66, 65170, 31080, -121170, -543, 379, -4
7915, -252, 579, -114, 65730, 28140, -126140, -540, 390, -4
7916, -273, 678, -130, 66290, 17710, -132370, -538, 378, 1
7917, -343, 770, -241, 64400, -3080, -147000, -525, 382, -1
7918, -316, 667, -248, 62860, -15120, -154910, -516, 379, 7
7919, -154, 517, -181, 61810, -24290, -162190, -508, 382, 12
7920, -107, 412, -181, 60270, -20790, -166880, -495, 378, 16
7921, -112, 341, -167, 60060, -24990, -171710, -490, 373, 16
7922, -387, 273, -233, 55860, -34860, -181580, -478, 366, 18
7923, -425, 269, -256, 52710, -51030, -188510, -451, 358, 33
7924, -393, 260, -266, 49700, -62300, -195370, -456, 357, 19
7925, -426, 248, -302, 46550, -64890, -201320, -448, 363, 18
7926, -422, 153, -320, 44310, -74060, -206360, -433, 348, 19
7927, -773, 505, -46, 42910, -38780, -211190, -411, 340, 21
7928, -2533, 1291, -935, 43260, 11480, -220360, -403, 331, 22
7929, -3085, 770, -1416, 60620, -44730, -251230, -402, 330, 16
7930, -883, -409, -532, 71820, -145950, -276850, -381, 315, 22
7931, -984, 150, -1082, 37870, 78330, -266140, -366, 303, 15
7932, 268, 220, -154, 67410, -146440, -294910, -351, 291, 9
7933, 1064, -711, -335, 45220, 57120, -272160, -334, 277, 0
7934, -3239, 3155, -3088, 5530, 835450, 31360, -331, 265, 3
7935, -3997, 1404, -3997, 89110, 1346380, 1175300, -381, 286, 108
7936, -3997, 3333, 1896, -71820, -37730, 92120, -432, 304, 132
7937, -2013, -2715, -719, -3010, -200060, 61180, -426, 321, 90
7938, -2349, 3709, -1563, -91770, -298970, -271040, -409, 310, 82
7939, -753, -3583, -677, -490, -412160, -341670, -361, 292, 45
7940, 3997, 2603, 87, -42420, -254520, -365190, -354, 289, 36
7941, -432, 3997, 2796, 770, 473480, -92820, -367, 280, 61
7942, -2125, -2931, -3997, 27510, 12110, 25690, -360, 286, 40
7943, 1388, 2634, 3997, 58100, -606690, -32480, -361, 283, 51
7944, -1717, -1547, -3303, -45710, 691390, 53480, -348, 285, 45
7945, -1054, 422, -2076, -29050, 453880, 34160, -357, 282, 57
7946, 1677, 568, 940, 55650, -497210, -77490, -340, 289, 37
7947, -2001, 1381, -471, -12250, 643930, 55930, -361, 276, 64
7948, -3479, 65, -1296, 21210, -180880, -17220, -357, 288, 66
7949, -816, 931, 247, -11270, 5460, 10150, -361, 277, 51
7950, -593, 1095, -442, -12670, 74550, 4830, -352, 285, 54
7951, -227, -58, 160, 7770, -103950, -10570, -351, 274, 46
7952, -1604, 564, -161, -12880, 161210, 17500, -373, 280, 55
7953, -1537, 36, -612, 140, -139090, -16940, -357, 282, 51
7954, 9, 574, 177, -8050, 3640, 910, -360, 283, 54
7955, -699, 328, 91, 2870, -3780, 280, -357, 282, 46
7956, -1089, 163, -270, 770, 18130, 1330, -351, 286, 58
7957, -985, 457, -277, 1890, -2520, 70, -354, 279, 54
7958, -745, 456, -288, 1470, -9660, -1050, -349, 282, 60
7959, -978, 364, -265, 980, -9660, -980, -355, 282, 55
7960, -739, 299, -65, 280, -2380, -210, -351, 283, 49
7961, -1060, 512, -478, -3710, 6440, 770, -355, 276, 43
7962, -635, 398, 28, 1470, -21210, -2590, -349, 282, 61
7963, -1291, 396, -583, -4480, 31850, 3010, -349, 282, 39
7964, -1082, 405, -546, -4130, 35140, 3570, -346, 288, 51
7965, -629, 344, 91, 3570, -32480, -2940, -348, 283, 54
7966, -1064, 473, -468, -1820, 35210, 3080, -360, 289, 57
7967, -894, 259, -86, 3150, -19600, -1750, -358, 282, 54
7968, -961, 462, -359, -910, 16170, 1120, -352, 288, 45
7969, -918, 539, -247, -2170, 23030, 2100, -355, 279, 45
7970, -895, 276, -236, 1330, -23660, -2380, -346, 280, 51
7971, -1002, 446, -250, -2800, 26740, 2170, -354, 279, 54
7972, -845, 275, -249, 1820, -35070, -3500, -352, 282, 45
7973, -894, 321, -259, 1820, -22260, -1960, -355, 286, 42
7974, -884, 415, -160, -840, 23660, 2030, -358, 285, 49
7975, -1018, 329, -370, 1330, -15680, -1610, -355, 280, 51
7976, -794, 425, -93, 0, 10850, 840, -357, 277, 54
7977, -975, 353, -383, 280, -9660, -770, -358, 276, 43
7978, -1062, 353, -462, -420, -7420, -910, -348, 286, 51
7979, -788, 398, -24, -350, 6020, 350, -354, 274, 46
7980, -1037, 355, -459, -280, -8190, -980, -358, 282, 55
7981, -709, 371, 19, 140, 3990, 560, -361, 282, 52
7982, -1034, 382, -428, -280, 630, -70, -351, 288, 48
7983, -1079, 390, -453, -420, 3990, 140, -360, 271, 51
7984, -744, 363, -34, 1120, -6020, -560, -361, 289, 55
7985, -1032, 397, -411, -980, 6930, 630, -354, 288, 55
7986, -735, 377, -29, 840, -7560, -770, -354, 282, 58
7987, -772, 355, -63, 840, -9940, -1050, -352, 279, 55
7988, -1027, 384, -390, -1120, 8540, 700, -351, 274, 54
7989, -746, 359, -61, 980, -9870, -840, -349, 273, 51
7990, -1010, 399, -358, -910, 11550, 980, -357, 280, 43
7991, -804, 359, -119, 1120, -9730, -1050, -360, 280, 51
7992, -800, 365, -136, 1050, -11900, -1120, -352, 282, 51
7993, -970, 399, -304, -1120, 11620, 1050, -363, 276, 58
7994, -820, 370, -156, 770, -10920, -1120, -351, 285, 54
7995, -982, 385, -299, -1050, 11060, 910, -348, 279, 51
7996, -840, 364, -177, -770, 9660, 840, -352, 282, 48
7997, -839, 371, -181, 840, -8680, -840, -357, 283, 52
7998, -944, 385, -265, -630, 9380, 770, -358, 289, 63
7999, -871, 371, -207, 630, -7700, -840, -354, 283, 40
8000, -933, 385, -255, -560, 7420, 630, -361, 283, 52
8001, -919, 385, -241, -490, 6650, 560, -355, 280, 52
8002, -881, 373, -218, 350, -5880, -700, -357, 280, 57
8003, -921, 377, -241, -490, 5530, 420, -351, 285, 46
8004, -878, 373, -218, 350, -4970, -630, -346, 279, 60
8005, -909, 380, -237, -280, 4760, 350, -360, 291, 49
8006, -915, 379, -241, -210, 3780, 280, -342, 277, 48
8007, -889, 377, -222, 280, -3010, -420, -348, 282, 54
8008, -907, 381, -238, -210, 2660, 210, -346, 288, 34
8009, -886, 378, -221, 70, -2170, -280, -345, 282, 48
8010, -909, 378, -237, 140, -1750, -280, -358, 282, 54
8011, -904, 377, -236, -140, 1680, 70, -348, 282, 49
8012, -888, 379, -221, 140, -1190, -140, -354, 283, 46
8013, -906, 379, -238, -70, 1470, 0, -355, 283, 39
8014, -894, 378, -223, 70, -630, -140, -345, 276, 58
8015, -890, 379, -221, 0, -560, -140, -352, 285, 55
8016, -902, 379, -234, -140, 490, -70, -349, 280, 46
8017, -894, 376, -222, 0, 0, -140, -354, 283, 54
8018, -904, 376, -235, 0, 350, -70, -363, 265, 51
8019, -894, 378, -224, 70, 70, -70, -351, 289, 55
8020, -896, 380, -226, 0, 280, -70, -364, 270, 51
8021, -902, 378, -233, 0, 140, -70, -352, 282, 49
8022, -898, 378, -227, 0, 210, 0, -363, 271, 51
8023, -898, 377, -230, 70, -140, -70, -345, 288, 51
8024, -896, 378, -228, 0, 70, -70, -364, 282, 51
8025, -900, 378, -229, 0, 420, -70, -357, 274, 55
8026, -899, 378, -228, 70, 0, -140, -346, 280, 54
8027, -897, 378, -228, 0, 280, -70, -364, 283, 46
8028, -898, 378, -228, 0, 70, -70, -358, 277, 54
8029, -899, 378, -229, 0, 70, -70, -355, 289, 51
8030, -898, 378, -229, 0, 210, -70, -366, 283, 57
8031, -897, 378, -228, -70, 70, -140, -360, 282, 58
8032, -898, 378, -229, 0, 280, -70, -358, 289, 46
8033, -898, 378, -229, -70, 210, -70, -360, 283, 55
8034, -898, 378, -228, 70, 140, 0, -357, 276, 54
8035, -898, 379, -229, 0, 140, -70, -357, 279, 45
8036, -898, 377, -228, 0, 210, -70, -349, 285, 45
8037, -899, 378, -230, -70, 210, -70, -351, 273, 48
8038, -898, 378, -229, 0, 210, 0, -366, 283, 52
8039, -898, 378, -228, 0, 140, -70, -354, 279, 48
8040, -898, 378, -230, 0, 70, -70, -358, 279, 52
8041, -898, 377, -229, 0, 210, -70, -351, 277, 43
8042, -898, 378, -228, 0, 140, -70, -361, 288, 51
8043, -899, 377, -229, -70, 140, -70, -348, 277, 51
8044, -898, 378, -229, 0, 280, -70, -352, 279, 48
8045, -898, 378, -230, 70, 210, -70, -355, 277, 49
8046, -899, 378, -229, 70, 210, -70, -360, 285, 57
8047, -898, 378, -230, 0, 140, 0, -348, 274, 45
8048, -898, 378, -228, 0, 140, -70, -360, 285, 57
8049, -899, 377, -229, 0, 140, -70, -346, 273, 49
8050, -899, 378, -230, 70, 140, -70, -352, 288, 57
8051, -898, 378, -229, 0, 140, -70, -348, 276, 49
8052, -899, 378, -228, 0, 210, -70, -357, 282, 48
8053, -898, 378, -229, 0, 140, -70, -361, 280, 57
8054, -899, 379, -229, 0, 140, -70, -346, 288, 54
8055, -899, 377, -229, 0, 140, -70, -360, 274, 51
8056, -898, 378, -229, 0, 210, -70, -360, 289, 52
8057, -899, 378, -228, 0, 210, -140, -358, 271, 46
8058, -898, 378, -229, 0, 140, -70, -355, 283, 58
8059, -898, 378, -229, -70, 140, -70, -355, 279, 51
8060, -899, 377, -230, 0, 210, 0, -357, 277, 55
8061, -898, 377, -229, 0, 210, 0, -354, 280, 54
8062, -898, 378, -229, 0, 140, -70, -357, 295, 48
8063, -899, 378, -229, 0, 70, -70, -354, 291, 54
8064, -898, 377, -228, -70, 140, -70, -364, 282, 54
8065, -899, 378, -230, 70, 140, -70, -355, 274, 48
8066, -898, 377, -230, 0, 140, -70, -358, 279, 49
8067, -898, 378, -229, 0, 70, -70, -345, 279, 55
8068, -899, 378, -228, -70, 140, 0, -349, 273, 49
8069, -899, 378, -229, 0, 140, -70, -360, 279, 60
8070, -898, 377, -230, 0, 140, 0, -358, 288, 51
8071, -898, 378, -229, 0, 140, -140, -361, 273, 52
8072, -898, 378, -229, 0, 140, -70, -354, 282, 51
8073, -899, 378, -229, 0, 210, -70, -355, 280, 46
8074, -899, 378, -228, 70, 210, -70, -354, 279, 54
8075, -898, 377, -229, 0, 210, -70, -355, 280, 46
8076, -898, 378, -228, 0, 140, -70, -346, 274, 46
8077, -899, 377, -230, -70, 140, -140, -355, 270, 48
8078, -899, 378, -230, 0, 210, -70, -357, 279, 54
8079, -899, 378, -228, 0, 210, -70, -351, 289, 51
8080, -898, 378, -229, 0, 210, -70, -355, 280, 55
8081, -898, 378, -229, 0, 210, -70, -360, 271, 51
8082, -899, 378, -229, 0, 140, -70, -352, 288, 57
8083, -899, 378, -229, 0, 140, -70, -352, 276, 48
8084, -898, 377, -228, 0, 210, -70, -358, 286, 58
8085, -899, 377, -229, -70, 140, -70, -346, 283, 43
8086, -898, 378, -229, -70, 140, -70, -349, 277, 51
8087, -899, 377, -229, 0, 70, -70, -351, 282, 48
8088, -898, 377, -228, 0, 210, -70, -363, 282, 42
8089, -899, 377, -229, 0, 140, -140, -357, 274, 43
8090, -898, 378, -230, 0, 140, -70, -363, 286, 52
8091, -898, 378, -229, 0, 140, -70, -358, 276, 51
8092, -899, 377, -229, 0, 140, -70, -358, 282, 58
8093, -898, 378, -230, 0, 140, -70, -352, 291, 45
8094, -898, 377, -228, 0, 210, -70, -360, 282, 63
8095, -899, 378, -230, 0, 280, -70, -360, 283, 58
8096, -899, 378, -228, 0, 140, -70, -357, 279, 55
8097, -898, 378, -229, 0, 140, -70, -364, 291, 45
8098, -898, 378, -228, 0, 70, -70, -343, 279, 52
8099, -899, 378, -230, 0, 210, -70, -363, 280, 49
8100, -898, 378, -229, 0, 140, -70, -352, 282, 52
8101, -899, 377, -229, -70, 140, -70, -354, 283, 54
8102, -899, 378, -229, 0, 140, -70, -361, 279, 55
8103, -899, 378, -228, 0, 210, -140, -351, 282, 55
8104, -898, 377, -229, 0, 210, -70, -346, 280, 55
8105, -898, 377, -229, -70, 140, -70, -351, 276, 58
8106, -898, 378, -229, 0, 140, -70, -355, 282, 51
8107, -898, 378, -229, 0, 140, -70, -360, 279, 54
8108, -898, 378, -229, 0, 140, -140, -358, 276, 45
8109, -899, 378, -228, 70, 140, -70, -364, 286, 51
8110, -899, 379, -229, 70, 140, -70, -354, 280, 49
8111, -898, 377, -229, 70, 140, -70, -352, 279, 60
8112, -898, 378, -229, 0, 70, -70, -355, 283, 49
8113, -898, 379, -229, 0, 280, -70, -355, 288, 55
8114, -899, 378, -230, 0, 210, -70, -352, 285, 57
8115, -898, 378, -229, 0, 210, -70, -358, 282, 46
8116, -898, 378, -229, 0, 140, -70, -354, 280, 58
8117, -898, 379, -229, 70, 140, -70, -357, 280, 52
8118, -898, 378, -229, 70, 140, -70, -361, 282, 45
8119, -898, 378, -228, 0, 140, -70, -346, 286, 54
8120, -898, 377, -229, 0, 140, -70, -348, 279, 54
8121, -898, 378, -229, -70, 210, -70, -357, 276, 49
8122, -898, 377, -229, -70, 140, -140, -354, 280, 40
8123, -898, 377, -229, 0, 70, -70, -363, 279, 52
8124, -898, 378, -229, 0, 140, -70, -345, 271, 57
8125, -899, 378, -228, 0, 140, -70, -361, 288, 60
8126, -898, 378, -228, 0, 140, -140, -355, 280, 54
8127, -899, 378, -228, -70, 210, -70, -360, 282, 48
8128, -899, 379, -229, 0, 210, -70, -358, 277, 51
8129, -898, 378, -229, 0, 210, -70, -352, 280, 55
8130, -899, 378, -229, 0, 140, -70, -364, 282, 58
8131, -899, 378, -229, 0, 210, -70, -360, 279, 52
8132, -898, 378, -230, 0, 210, -70, -363, 283, 52
8133, -899, 378, -229, 0, 140, -70, -355, 279, 60
8134, -898, 378, -229, 0, 140, -70, -357, 288, 54
8135, -898, 378, -229, 70, 140, -70, -354, 280, 58
8136, -899, 378, -229, 0, 210, -70, -363, 288, 51
8137, -898, 378, -229, 70, 210, -70, -363, 279, 55
8138, -899, 378, -229, 0, 210, -70, -358, 279, 60
8139, -899, 378, -230, 0, 210, -70, -355, 280, 52
8140, -898, 378, -230, -70, 70, -70, -357, 277, 63
8141, -898, 378, -228, 0, 210, -70, -363, 276, 42
8142, -899, 377, -229, 0, 140, -70, -355, 280, 60
8143, -899, 378, -230, 0, 140, -70, -355, 276, 52
8144, -899, 378, -229, 70, 210, -70, -351, 280, 51
8145, -898, 378, -228, 0, 140, -70, -358, 289, 55
8146, -899, 378, -229, 70, 140, -140, -357, 285, 52
8147, -898, 378, -230, -70, 140, -70, -358, 283, 58
8148, -898, 378, -229, 0, 210, -140, -352, 285, 55
8149, -898, 378, -228, 0, 210, -70, -357, 277, 54
8150, -898, 378, -228, -70, 140, -70, -352, 277, 55
8151, -898, 378, -229, 0, 140, -70, -360, 277, 55
8152, -898, 378, -228, -70, 140, -70, -358, 282, 51
8153, -898, 378, -229, -70, 140, -70, -354, 285, 49
8154, -899, 378, -230, -70, 140, -70, -354, 279, 49
8155, -898, 378, -229, 0, 210, -70, -345, 282, 49
8156, -897, 378, -228, 0, 140, -70, -357, 283, 46
8157, -899, 378, -228, -70, 210, -70, -357, 288, 55
8158, -899, 378, -229, 0, 140, -70, -349, 283, 58
8159, -899, 378, -228, 0, 140, -70, -352, 280, 48
8160, -899, 378, -229, 0, 140, -70, -364, 286, 60
8161, -898, 377, -230, 0, 210, -70, -364, 273, 55
8162, -899, 378, -229, -70, 140, -70, -354, 282, 54
8163, -899, 378, -229, 0, 210, -70, -354, 286, 51
8164, -899, 378, -229, 0, 140, -70, -352, 277, 51
8165, -898, 377, -228, 0, 70, -70, -351, 288, 52
8166, -899, 378, -229, 0, 140, -70, -358, 280, 57
8167, -899, 378, -230, 70, 210, -70, -358, 279, 52
8168, -899, 377, -229, 0, 210, -70, -358, 277, 52
8169, -898, 378, -229, 70, 140, -70, -354, 270, 46
8170, -898, 378, -229, 0, 140, -70, -360, 283, 51
8171, -898, 377, -229, 0, 140, -70, -354, 276, 55
8172, -898, 378, -229, -70, 140, -140, -343, 283, 52
8173, -899, 378, -229, 70, 140, -70, -358, 279, 55
8174, -899, 378, -229, 0, 70, -70, -357, 285, 57
8175, -899, 378, -229, 0, 140, -70, -361, 276, 61
8176, -898, 377, -228, 70, 210, -70, -361, 277, 57
8177, -898, 377, -229, 0, 140, -70, -357, 277, 48
8178, -899, 378, -229, 0, 140, -70, -352, 273, 57
8179, -898, 378, -229, 70, 210, 0, -349, 279, 55
8180, -898, 378, -229, 0, 140, -70, -357, 279, 63
8181, -898, 378, -228, 0, 140, -70, -357, 280, 54
8182, -897, 377, -229, 0, 210, -70, -349, 286, 51
8183, -898, 378, -229, 0, 210, 0, -352, 282, 52
8184, -899, 378, -230, 0, 210, -70, -352, 291, 52
8185, -899, 379, -229, 0, 140, -70, -352, 282, 55
8186, -898, 378, -229, 0, 140, -70, -358, 280, 54
8187, -898, 378, -229, 70, 210, -70, -352, 279, 42
8188, -898, 377, -229, 0, 140, -70, -358, 276, 52
8189, -898, 377, -229, 0, 140, -70, -358, 283, 52
8190, -898, 378, -228, 0, 140, -70, -352, 274, 54
8191, -898, 377, -228, 0, 140, -140, -360, 277, 52
8192, -899, 378, -228, 0, 140, -70, -354, 285, 63
8193, -899, 378, -228, -70, 210, -70, -367, 286, 55
8194, -898, 378, -228, -70, 140, 0, -346, 280, 46
8195, -899, 378, -229, 0, 210, -70, -357, 279, 48
8196, -899, 378, -229, 0, 210, -70, -352, 285, 60
8197, -898, 378, -231, 0, 140, -70, -363, 280, 49
8198, -898, 378, -229, -70, 140, -70, -357, 276, 46
8199, -898, 378, -228, 0, 210, -70, -351, 282, 52
8200, -898, 378, -229, -70, 140, 0, -358, 277, 51
8201, -898, 378, -229, 0, 140, -70, -360, 280, 51
8202, -898, 378, -229, 70, 140, -70, -352, 283, 55
8203, -899, 378, -229, 0, 140, -70, -354, 286, 58
8204, -898, 377, -229, 0, 140, -70, -354, 283, 54
8205, -898, 378, -229, 0, 210, -70, -358, 282, 54
8206, -898, 378, -229, 0, 140, -70, -354, 274, 49
8207, -898, 378, -229, 0, 210, -70, -355, 283, 57
8208, -898, 378, -229, 0, 140, -70, -358, 279, 46
8209, -899, 379, -229, 70, 140, -70, -355, 276, 51
8210, -898, 378, -229, 0, 210, -70, -339, 285, 51
8211, -898, 378, -228, 0, 140, -70, -358, 283, 55
8212, -898, 378, -228, -70, 140, -70, -355, 279, 52
8213, -899, 377, -229, 0, 70, -70, -367, 274, 60
8214, -898, 378, -229, 70, 140, -70, -354, 282, 52
8215, -899, 379, -229, 0, 140, 0, -358, 277, 58
8216, -898, 378, -230, 0, 210, -70, -351, 279, 54
8217, -897, 378, -228, 0, 140, -140, -351, 279, 52
8218, -898, 378, -229, 70, 210, -70, -355, 288, 57
8219, -898, 378, -229, 0, 210, -70, -351, 279, 52
8220, -899, 378, -229, 0, 140, -70, -351, 274, 43
8221, -898, 378, -228, 0, 140, -70, -355, 282, 58
8222, -898, 378, -230, 70, 210, -70, -351, 286, 66
8223, -898, 378, -229, 0, 210, -70, -352, 283, 48
8224, -899, 377, -230, 0, 210, -70, -355, 291, 52
8225, -898, 378, -229, -70, 210, -70, -346, 279, 54
8226, -898, 378, -229, 0, 140, -70, -358, 280, 57
8227, -899, 378, -229, 0, 70, -70, -358, 283, 54
8228, -899, 378, -229, 70, 140, -70, -357, 277, 61
8229, -898, 378, -228, 0, 210, -70, -361, 283, 54
8230, -898, 378, -228, 0, 210, -70, -352, 285, 55
8231, -898, 378, -229, 0, 210, -70, -345, 283, 49
8232, -898, 378, -228, 70, 210, -70, -351, 286, 52
8233, -898, 378, -228, -70, 210, -70, -349, 283, 54
8234, -899, 378, -229, 0, 140, -70, -363, 282, 49
8235, -899, 378, -229, 0, 210, -70, -349, 277, 51
8236, -898, 378, -228, 0, 140, -70, -348, 285, 42
8237, -899, 378, -230, 0, 210, -140, -345, 282, 49
8238, -899, 378, -228, -70, 140, -70, -355, 283, 52
8239, -899, 378, -229, 0, 140, -70, -358, 277, 63
8240, -898, 378, -229, 0, 140, -70, -349, 282, 60
8241, -899, 378, -229, 0, 140, 0, -348, 279, 51
8242, -899, 377, -229, 0, 70, -70, -366, 289, 54
8243, -899, 378, -229, -70, 140, -70, -348, 280, 57
8244, -898, 378, -228, 0, 210, -70, -360, 285, 61
8245, -898, 378, -229, -70, 210, -70, -349, 280, 55
8246, -898, 378, -228, 0, 210, -70, -354, 285, 49
8247, -898, 377, -229, -70, 70, -70, -355, 282, 49
8248, -899, 377, -228, 0, 210, -140, -357, 277, 54
8249, -898, 377, -229, 0, 140, -70, -361, 280, 46
8250, -898, 377, -230, 0, 140, -70, -360, 282, 64
8251, -898, 378, -228, 0, 140, -70, -355, 277, 46
8252, -899, 378, -229, 0, 210, -70, -354, 288, 61
8253, -898, 378, -229, 0, 210, -70, -361, 280, 46
8254, -898, 378, -230, 0, 140, -70, -348, 286, 45
8255, -899, 378, -229, 0, 210, -70, -351, 282, 58
8256, -897, 377, -228, 0, 140, -70, -349, 285, 49
8257, -899, 378, -229, 0, 210, -70, -357, 276, 49
8258, -898, 378, -228, 0, 140, -70, -358, 283, 60
8259, -898, 378, -229, 0, 140, -140, -357, 288, 55
8260, -899, 377, -229, 0, 140, -70, -358, 285, 51
8261, -899, 378, -229, -70, 140, -70, -360, 279, 46
8262, -899, 377, -228, 0, 210, -70, -354, 288, 49
8263, -898, 378, -230, 0, 70, -70, -349, 283, 51
8264, -898, 378, -229, 0, 140, -70, -357, 283, 55
8265, -898, 378, -229, 0, 140, -70, -361, 288, 52
8266, -898, 378, -229, 70, 140, -140, -352, 282, 54
8267, -898, 377, -229, 0, 210, -70, -349, 276, 51
8268, -897, 378, -229, 0, 140, -70, -346, 291, 46
8269, -898, 378, -229, 0, 140, -70, -355, 282, 54
8270, -898, 378, -229, 0, 140, -70, -351, 277, 49
8271, -899, 378, -229, 0, 140, -70, -349, 282, 57
8272, -899, 377, -229, 0, 140, -70, -358, 277, 52
8273, -899, 378, -228, 0, 140, -70, -357, 282, 51
8274, -898, 378, -228, 0, 140, 0, -358, 288, 60
8275, -898, 378, -229, 0, 140, -70, -357, 273, 46
8276, -898, 378, -229, -70, 140, 0, -352, 276, 51
8277, -899, 379, -229, 70, 140, -70, -351, 283, 46
8278, -899, 378, -229, 0, 210, -70, -352, 282, 58
8279, -898, 378, -229, 0, 140, -70, -354, 286, 51
8280, -899, 378, -229, 0, 140, -140, -357, 283, 57
8281, -898, 378, -229, 0, 140, -70, -360, 285, 48
8282, -899, 378, -230, 0, 210, -70, -352, 276, 52
8283, -899, 378, -229, 0, 140, -70, -357, 283, 58
8284, -899, 378, -229, 0, 210, -70, -349, 289, 51
8285, -898, 378, -228, 70, 70, -70, -351, 285, 48
8286, -898, 378, -228, 0, 140, -70, -364, 280, 54
8287, -898, 378, -228, 0, 140, -70, -351, 292, 49
8288, -898, 378, -229, 0, 70, -70, -355, 282, 54
8289, -899, 378, -228, 0, 140, -70, -358, 283, 42
8290, -899, 378, -230, 0, 210, -70, -364, 280, 52
8291, -899, 378, -228, 0, 210, -70, -363, 283, 46
8292, -899, 378, -228, -70, 140, -70, -360, 280, 54
8293, -898, 378, -229, 0, 140, -70, -358, 285, 55
8294, -898, 378, -230, 0, 140, -70, -355, 283, 55
8295, -898, 378, -228, 0, 140, -70, -352, 283, 52
8296, -898, 378, -229, 70, 210, -70, -354, 283, 55
8297, -898, 378, -228, 0, 140, -70, -366, 283, 46
8298, -898, 378, -229, 0, 70, -140, -357, 285, 55
8299, -898, 377, -228, 0, 210, -70, -358, 283, 48
8300, -898, 377, -228, -70, 140, -70, -352, 277, 48
8301, -898, 378, -229, 0, 140, -140, -358, 277, 55
8302, -898, 377, -230, 70, 140, -70, -352, 280, 43
8303, -899, 378, -228, 0, 140, -70, -351, 283, 55
8304, -898, 378, -229, -70, 140, -70, -352, 282, 57
8305, -899, 378, -229, 0, 210, -70, -364, 289, 61
8306, -899, 378, -230, 0, 210, -70, -354, 273, 52
8307, -898, 377, -230, 70, 70, -140, -360, 282, 51
8308, -898, 378, -229, -70, 140, -70, -352, 270, 61
8309, -898, 378, -229, 0, 210, -70, -352, 288, 51
8310, -898, 378, -229, 0, 210, -70, -345, 283, 55
8311, -898, 377, -229, 0, 210, -70, -355, 291, 55
8312, -898, 378, -230, 0, 140, -70, -354, 282, 49
8313, -898, 377, -229, 0, 140, -70, -358, 288, 57
8314, -899, 378, -229, 0, 210, -70, -352, 274, 60
8315, -899, 378, -228, 0, 140, -70, -348, 280, 61
8316, -898, 378, -229, 0, 140, -70, -358, 277, 54
8317, -899, 379, -229, 0, 210, -70, -357, 280, 54
8318, -898, 378, -228, 0, 140, -70, -349, 279, 43
8319, -898, 378, -228, 0, 70, -70, -351, 280, 57
8320, -898, 378, -229, 70, 140, -70, -355, 285, 52
8321, -899, 378, -228, 0, 210, -70, -349, 279, 54
8322, -898, 378, -229, 0, 210, -70, -363, 286, 54
8323, -898, 378, -229, 70, 210, -140, -358, 279, 43
8324, -898, 378, -229, 0, 210, -70, -361, 274, 69
8325, -899, 378, -228, 0, 140, -70, -357, 285, 58
8326, -898, 378, -229, 0, 280, -70, -349, 285, 54
8327, -899, 377, -229, 0, 140, -70, -355, 274, 57
8328, -898, 378, -229, -70, 140, -70, -355, 279, 58
8329, -898, 379, -228, -70, 140, -70, -354, 276, 54
8330, -899, 378, -228, 70, 210, -140, -361, 286, 57
8331, -898, 377, -229, 0, 140, -70, -354, 283, 58
8332, -899, 377, -230, 0, 210, -70, -346, 276, 52
8333, -899, 377, -228, 0, 210, -70, -357, 285, 54
8334, -898, 378, -229, 0, 140, -70, -354, 286, 58
8335, -898, 378, -229, 0, 140, -70, -354, 283, 54
8336, -898, 377, -229, 0, 140, -70, -351, 276, 58
8337, -898, 378, -229, 0, 140, -70, -366, 288, 54
8338, -898, 378, -228, 0, 140, -70, -361, 283, 58
8339, -898, 378, -228, 0, 140, -70, -355, 286, 52
8340, -899, 378, -230, 0, 210, -70, -348, 279, 52
8341, -898, 378, -229, 0, 140, -70, -352, 280, 52
8342, -898, 378, -229, 0, 140, -70, -354, 282, 55
8343, -899, 378, -229, 70, 140, -70, -357, 283, 52
8344, -899, 378, -229, 0, 210, -70, -358, 283, 63
8345, -898, 377, -229, 0, 140, -70, -363, 279, 45
8346, -899, 378, -228, 0, 210, -70, -354, 285, 57
8347, -899, 378, -229, 0, 210, -70, -355, 274, 55
8348, -899, 378, -229, 0, 70, -70, -364, 285, 54
8349, -899, 378, -229, 0, 210, -70, -358, 285, 46
8350, -899, 379, -228, 70, 140, -70, -360, 282, 52
8351, -899, 377, -229, 0, 210, -70, -363, 277, 54
8352, -899, 378, -230, 0, 140, -70, -354, 282, 55
8353, -898, 377, -230, 0, 210, -140, -354, 276, 51
8354, -898, 378, -228, 0, 280, -70, -354, 276, 51
8355, -899, 378, -229, 0, 210, -70, -349, 280, 54
8356, -899, 378, -228, 0, 210, -70, -357, 277, 55
8357, -898, 378, -228, 0, 210, 0, -352, 282, 43
8358, -898, 378, -229, 0, 140, -70, -351, 291, 58
8359, -899, 377, -228, 0, 210, -70, -349, 277, 60
8360, -899, 378, -230, 0, 140, -70, -345, 277, 57
8361, -898, 378, -229, 70, 70, -70, -358, 286, 52
8362, -898, 378, -228, 0, 140, 0, -352, 280, 51
8363, -898, 378, -229, -70, 210, -70, -348, 270, 48
8364, -898, 378, -230, 0, 140, -70, -349, 286, 64
8365, -898, 378, -230, 0, 140, -70, -352, 280, 55
8366, -899, 378, -229, 0, 140, -70, -360, 282, 55
8367, -898, 378, -229, 0, 210, -70, -351, 289, 51
8368, -899, 378, -229, 0, 210, -70, -352, 282, 66
8369, -898, 378, -229, 0, 210, -70, -351, 282, 48
8370, -898, 378, -230, 0, 140, -70, -357, 289, 49
8371, -899, 377, -229, 0, 140, -70, -352, 283, 48
8372, -898, 378, -229, 70, 140, -70, -348, 273, 52
8373, -897, 378, -228, 0, 210, -70, -349, 285, 49
8374, -898, 378, -229, 0, 140, -70, -352, 285, 51
8375, -899, 379, -229, 70, 210, -140, -355, 292, 43
8376, -899, 378, -229, 0, 140, -70, -366, 280, 55
8377, -898, 377, -228, 0, 140, -70, -355, 282, 45
8378, -899, 377, -229, 0, 140, -70, -358, 280, 51
8379, -898, 378, -229, 0, 140, -70, -355, 277, 45
8380, -898, 378, -228, 70, 210, 0, -352, 279, 49
8381, -899, 378, -230, 0, 140, -70, -348, 294, 55
8382, -898, 378, -229, 0, 140, -70, -354, 283, 57
8383, -898, 378, -229, -70, 210, -70, -355, 285, 55
8384, -898, 377, -228, 0, 140, -70, -366, 288, 55
8385, -898, 378, -228, 70, 210, -140, -363, 283, 52
8386, -899, 378, -228, 0, 140, -70, -357, 277, 52
8387, -899, 378, -229, 0, 210, 0, -357, 282, 43
8388, -899, 378, -229, -70, 210, -70, -351, 286, 48
8389, -899, 378, -229, 0, 210, -70, -352, 288, 51
8390, -899, 379, -229, 0, 140, -70, -354, 283, 51
8391, -899, 378, -229, 0, 140, -70, -361, 277, 55
8392, -898, 378, -229, 0, 210, -70, -355, 277, 55
8393, -899, 377, -228, 70, 210, -70, -361, 277, 40
8394, -898, 378, -230, 0, 140, -70, -354, 279, 52
8395, -898, 378, -229, 0, 140, -70, -351, 289, 48
8396, -898, 378, -228, 0, 210, -70, -360, 280, 46
8397, -899, 378, -230, 70, 140, -70, -349, 280, 51
8398, -899, 377, -228, 0, 210, -70, -363, 280, 57
8399, -898, 377, -228, 0, 140, -70, -354, 286, 49
8400, -899, 377, -228, 0, 210, -70, -355, 286, 60
8401, -898, 378, -228, 0, 140, -70, -351, 283, 58
8402, -898, 378, -229, 0, 210, 0, -355, 277, 54
8403, -898, 377, -228, 0, 140, -70, -352, 291, 52
8404, -899, 378, -228, 0, 140, -70, -363, 274, 52
8405, -898, 378, -229, 0, 140, -70, -358, 283, 58
8406, -898, 378, -229, 0, 140, -140, -360, 285, 54
8407, -899, 378, -228, 0, 140, -70, -355, 286, 57
8408, -898, 378, -229, 0, 210, -70, -360, 279, 49
8409, -899, 378, -229, 0, 210, -70, -349, 291, 54
8410, -898, 378, -229, 0, 210, -70, -354, 279, 51
8411, -898, 378, -229, 0, 210, -70, -351, 276, 51
8412, -898, 378, -228, -70, 140, -70, -357, 276, 49
8413, -899, 378, -229, 70, 210, -70, -360, 280, 52
8414, -899, 377, -230, -70, 140, -70, -357, 282, 42
8415, -898, 378, -229, 0, 140, -70, -351, 286, 58
8416, -898, 378, -229, 0, 140, -70, -352, 280, 55
8417, -899, 378, -229, 0, 210, -70, -355, 286, 61
8418, -899, 377, -229, 0, 140, -70, -343, 274, 49
8419, -898, 377, -228, 0, 140, -140, -358, 276, 51
8420, -898, 377, -229, 0, 140, -70, -355, 289, 57
8421, -898, 377, -229, 0, 140, -70, -355, 279, 54
8422, -898, 378, -228, 0, 140, -70, -346, 285, 58
8423, -899, 378, -227, 0, 210, -70, -357, 280, 52
8424, -898, 378, -229, 0, 140, -70, -346, 286, 55
8425, -899, 378, -228, 70, 210, -70, -348, 282, 52
8426, -898, 379, -229, 0, 210, -70, -354, 283, 54
8427, -898, 378, -229, 0, 210, -70, -361, 280, 51
8428, -899, 378, -229, 0, 210, -70, -355, 283, 46
8429, -899, 378, -229, 70, 140, 0, -352, 282, 51
8430, -899, 379, -229, 0, 210, -70, -361, 283, 58
8431, -898, 378, -229, 0, 210, -70, -352, 289, 45
8432, -899, 377, -228, 0, 210, -70, -346, 279, 55
8433, -898, 378, -229, 0, 210, -70, -357, 279, 61
8434, -899, 378, -229, -70, 210, -70, -357, 283, 54
8435, -899, 378, -228, 0, 140, -70, -360, 277, 54
8436, -898, 378, -229, 0, 140, -70, -354, 280, 60
8437, -898, 378, -229, 0, 140, -70, -358, 271, 46
8438, -898, 378, -229, 0, 210, -70, -357, 285, 58
8439, -899, 378, -228, 0, 280, -70, -354, 289, 58
8440, -899, 378, -229, 70, 210, -70, -355, 280, 48
8441, -898, 378, -228, 0, 140, -70, -351, 276, 49
8442, -899, 377, -229, 0, 140, -70, -363, 283, 54
8443, -899, 378, -229, 0, 140, -70, -361, 279, 49
8444, -898, 377, -229, 70, 210, -70, -361, 291, 49
8445, -899, 378, -228, 0, 140, -70, -352, 283, 51
8446, -898, 378, -229, -70, 140, -70, -361, 283, 49
8447, -898, 377, -228, -70, 210, -70, -360, 274, 45
8448, -898, 378, -229, 0, 70, -70, -354, 283, 40
8449, -899, 378, -229, 0, 140, -70, -358, 285, 52
8450, -898, 378, -230, 0, 210, -140, -358, 274, 54
8451, -899, 378, -229, 0, 140, -70, -348, 288, 54
8452, -898, 378, -228, 70, 210, 0, -355, 285, 52
8453, -898, 378, -229, 0, 140, -70, -351, 273, 52
8454, -898, 378, -230, 0, 140, -140, -354, 277, 46
8455, -898, 377, -229, 0, 210, -70, -352, 279, 46
8456, -897, 377, -228, 0, 140, -70, -361, 277, 54
8457, -899, 378, -229, 0, 210, -70, -351, 282, 63
8458, -898, 378, -229, -70, 140, -70, -367, 279, 66
8459, -898, 378, -229, 0, 140, -70, -361, 282, 57
8460, -898, 377, -229, 0, 140, -70, -352, 277, 58
8461, -899, 378, -229, 0, 210, -70, -360, 280, 55
8462, -898, 377, -230, 0, 140, -70, -355, 274, 57
8463, -899, 378, -229, 0, 140, 0, -357, 282, 54
8464, -898, 378, -229, 0, 210, -70, -354, 277, 54
8465, -898, 378, -229, 0, 140, -70, -357, 285, 52
8466, -899, 378, -229, 0, 210, -70, -348, 274, 57
8467, -899, 377, -229, 0, 210, -70, -351, 286, 37
8468, -898, 377, -229, 0, 140, -70, -358, 289, 54
8469, -898, 378, -229, -70, 140, -70, -354, 271, 55
8470, -898, 377, -229, 0, 140, -70, -366, 286, 57
8471, -898, 379, -229, 0, 140, -70, -360, 276, 43
8472, -898, 378, -228, -70, 140, -70, -358, 285, 54
8473, -898, 378, -229, -70, 140, -70, -355, 283, 55
8474, -898, 378, -228, -70, 210, -70, -360, 280, 63
8475, -899, 378, -229, 0, 140, -70, -348, 279, 45
8476, -900, 378, -229, 0, 70, -70, -358, 280, 58
8477, -898, 378, -229, 0, 140, -70, -354, 282, 42
8478, -898, 378, -228, 0, 210, -70, -349, 282, 48
8479, -898, 378, -228, 0, 210, -70, -358, 276, 51
8480, -898, 377, -228, 0, 140, -70, -358, 276, 54
8481, -899, 378, -229, 70, 280, -70, -358, 280, 58
8482, -899, 378, -229, 0, 210, -70, -355, 274, 54
8483, -899, 378, -230, 0, 140, -70, -361, 279, 51
8484, -898, 378, -228, 0, 140, -70, -349, 279, 52
8485, -898, 377, -229, 0, 140, -70, -355, 285, 49
8486, -899, 377, -229, 0, 140, -70, -345, 282, 52
8487, -898, 377, -229, 0, 140, -70, -352, 286, 42
8488, -899, 378, -229, 0, 140, -140, -351, 280, 54
8489, -899, 379, -229, 0, 140, -70, -349, 280, 54
8490, -898, 378, -228, -70, 70, -70, -349, 282, 58
8491, -898, 378, -229, 0, 210, -70, -355, 280, 51
8492, -898, 378, -229, 0, 210, -70, -360, 276, 57
8493, -898, 378, -229, -70, 210, -70, -357, 282, 51
8494, -897, 378, -229, 0, 140, -70, -355, 282, 43
8495, -898, 378, -228, 0, 210, -70, -363, 273, 57
8496, -898, 377, -229, 0, 140, -70, -348, 276, 55
8497, -899, 378, -228, 0, 280, -70, -349, 277, 46
8498, -898, 378, -229, 70, 140, -70, -349, 277, 49
8499, -898, 378, -229, 70, 140, -70, -352, 286, 45
8500, -899, 378, -228, 0, 210, -70, -354, 285, 49
8501, -899, 377, -229, 0, 140, -70, -357, 283, 55
8502, -898, 378, -228, 0, 140, -70, -348, 279, 54
8503, -899, 378, -229, -70, 140, -70, -354, 280, 55
8504, -898, 378, -228, 70, 140, -70, -355, 280, 40
8505, -898, 378, -230, 0, 140, -70, -360, 282, 58
8506, -898, 378, -230, -70, 140, -70, -357, 271, 51
8507, -898, 379, -229, -70, 210, -70, -352, 288, 55
8508, -898, 378, -230, 0, 140, -70, -360, 282, 54
8509, -899, 378, -229, 0, 70, -70, -355, 283, 52
8510, -898, 377, -228, 0, 210, -70, -349, 285, 46
8511, -899, 378, -229, -70, 140, -70, -355, 282, 46
8512, -898, 378, -229, 0, 140, -70, -358, 286, 43
8513, -899, 378, -229, 70, 140, -70, -348, 280, 51
8514, -898, 378, -229, -70, 140, -70, -349, 279, 48
8515, -898, 378, -230, 0, 210, -70, -352, 277, 55
8516, -898, 378, -229, 0, 140, -140, -360, 282, 48
8517, -898, 379, -229, 0, 70, -140, -342, 289, 54
8518, -899, 377, -229, 0, 140, -70, -355, 276, 57
8519, -899, 379, -229, 0, 140, -70, -361, 283, 49
8520, -898, 378, -229, 0, 140, -70, -355, 285, 46
8521, -898, 378, -229, 0, 140, -70, -357, 279, 57
8522, -900, 378, -229, 0, 140, -70, -355, 283, 63
8523, -898, 378, -228, -70, 210, -70, -361, 273, 51
8524, -898, 378, -228, 0, 210, -70, -363, 277, 55
8525, -898, 378, -228, 70, 140, -70, -349, 276, 51
8526, -898, 378, -229, -70, 210, -70, -364, 291, 55
8527, -899, 377, -229, -70, 140, -70, -361, 280, 48
8528, -898, 378, -228, -70, 210, -70, -366, 276, 55
8529, -898, 377, -230, 0, 210, -70, -352, 283, 51
8530, -898, 378, -229, 0, 280, -70, -349, 280, 48
8531, -899, 378, -229, 0, 140, -70, -354, 282, 46
8532, -899, 377, -229, -70, 140, -70, -354, 283, 51
8533, -898, 378, -229, 70, 140, -70, -361, 285, 49
8534, -899, 377, -229, 0, 280, -70, -357, 286, 54
8535, -898, 378, -229, 0, 70, -70, -360, 273, 49
8536, -898, 378, -228, 0, 140, -70, -355, 280, 52
8537, -899, 378, -228, 0, 140, -70, -360, 282, 46
8538, -898, 377, -229, 0, 140, -140, -348, 282, 51
8539, -899, 377, -230, 0, 70, -140, -363, 279, 49
8540, -898, 378, -228, 140, 210, -70, -349, 276, 54
8541, -898, 378, -229, 0, 210, -70, -361, 274, 57
8542, -898, 378, -228, 0, 140, -70, -352, 283, 57
8543, -898, 377, -229, 0, 140, -70, -354, 279, 49
8544, -898, 378, -229, 0, 140, -70, -352, 283, 49
8545, -898, 377, -230, 0, 140, -70, -354, 282, 54
8546, -898, 378, -229, 0, 140, -70, -349, 286, 43
8547, -899, 377, -229, 0, 140, -70, -360, 271, 46
8548, -899, 378, -228, 0, 140, -70, -357, 279, 55
8549, -898, 378, -228, 0, 70, -70, -354, 288, 55
8550, -898, 377, -229, 0, 70, -70, -360, 279, 58
8551, -898, 378, -229, 0, 210, -70, -348, 285, 58
8552, -899, 378, -228, 0, 140, -70, -366, 283, 55
8553, -898, 378, -227, 70, 140, -70, -343, 274, 49
8554, -899, 378, -228, 70, 210, -70, -367, 285, 57
8555, -898, 378, -230, -70, 140, -70, -358, 288, 52
8556, -898, 378, -229, 0, 140, -70, -357, 283, 55
8557, -898, 378, -228, 0, 70, -70, -345, 274, 48
8558, -898, 378, -229, 0, 140, -70, -354, 288, 63
8559, -898, 378, -229, 0, 210, -70, -348, 277, 45
8560, -899, 378, -229, 0, 140, -70, -361, 282, 52
8561, -899, 377, -229, 0, 210, -70, -346, 280, 49
8562, -898, 378, -229, 0, 210, -70, -355, 282, 57
8563, -899, 378, -229, 0, 210, -70, -358, 285, 54
8564, -898, 377, -229, 0, 210, -140, -358, 285, 60
8565, -898, 378, -229, -70, 140, -70, -360, 276, 52
8566, -898, 378, -229, 0, 140, -140, -354, 285, 61
8567, -899, 378, -229, 0, 210, -70, -357, 279, 42
8568, -898, 378, -230, 0, 140, -70, -351, 283, 55
8569, -898, 378, -228, 0, 210, -70, -355, 285, 58
8570, -898, 378, -229, 70, 70, -70, -358, 279, 52
8571, -898, 377, -228, 0, 140, -70, -355, 277, 49
8572, -899, 377, -229, -70, 140, -70, -352, 277, 52
8573, -898, 378, -229, 70, 140, -70, -355, 280, 49
8574, -898, 378, -229, 0, 140, -70, -355, 279, 55
8575, -898, 378, -229, 0, 140, -70, -357, 285, 60
8576, -899, 377, -229, -70, 210, -70, -357, 282, 52
8577, -897, 377, -229, 0, 140, -70, -358, 277, 45
8578, -899, 378, -229, 0, 140, -70, -354, 279, 52
8579, -899, 378, -230, -70, 210, -70, -357, 283, 52
8580, -899, 378, -229, -70, 210, -70, -354, 279, 54
8581, -898, 378, -228, 0, 140, -70, -358, 282, 48
8582, -898, 378, -229, 0, 210, -70, -357, 283, 55
8583, -898, 377, -229, 0, 140, -70, -357, 283, 52
8584, -898, 377, -230, 0, 210, -70, -355, 282, 49
8585, -898, 377, -229, 0, 210, -70, -351, 274, 49
8586, -899, 378, -229, -70, 210, -70, -345, 279, 58
8587, -898, 378, -230, 0, 140, -70, -358, 271, 42
8588, -898, 379, -228, -70, 210, -70, -357, 276, 51
8589, -898, 377, -228, 0, 210, -70, -351, 274, 57
8590, -898, 377, -229, 0, 140, -70, -361, 282, 64
8591, -898, 378, -229, -70, 140, -70, -355, 276, 57
8592, -899, 378, -229, 0, 140, 0, -342, 273, 58
8593, -898, 378, -229, 0, 140, -70, -351, 285, 57
8594, -898, 377, -229, 0, 140, -70, -361, 280, 51
8595, -898, 378, -229, 0, 140, -70, -361, 289, 54
8596, -899, 378, -230, 70, 140, -140, -360, 273, 54
8597, -899, 378, -229, 0, 140, -70, -358, 285, 57
8598, -898, 378, -228, -70, 140, -70, -357, 283, 46
8599, -898, 378, -229, 0, 140, -140, -351, 288, 51
8600, -898, 377, -229, 0, 140, -70, -352, 280, 54
8601, -898, 379, -229, -70, 140, -70, -360, 283, 45
8602, -898, 378, -229, 0, 140, -70, -364, 273, 55
8603, -899, 377, -230, 0, 210, -70, -363, 276, 52
8604, -898, 378, -229, 0, 140, -70, -360, 280, 54
8605, -899, 378, -229, 0, 210, -70, -349, 285, 57
8606, -899, 378, -229, -70, 140, -70, -354, 279, 54
8607, -898, 378, -228, 0, 210, -70, -351, 289, 54
8608, -899, 378, -228, 0, 210, -140, -354, 279, 52
8609, -898, 377, -229, 70, 140, -70, -363, 282, 54
8610, -899, 378, -229, -70, 210, -70, -360, 276, 51
8611, -899, 378, -228, 0, 140, -70, -357, 279, 51
8612, -898, 377, -229, 70, 210, -70, -361, 286, 48
8613, -900, 378, -228, 0, 140, -70, -352, 277, 55
8614, -898, 378, -228, -70, 140, -70, -352, 279, 58
8615, -898, 378, -229, 0, 210, -70, -357, 282, 58
8616, -899, 377, -229, 70, 140, -70, -358, 283, 58
8617, -898, 377, -229, 0, 140, -70, -345, 279, 49
8618, -899, 378, -230, -70, 210, -70, -363, 282, 55
8619, -899, 379, -229, 0, 210, -70, -355, 283, 49
8620, -898, 378, -228, 0, 140, -70, -358, 286, 51
8621, -898, 378, -228, 0, 140, -70, -364, 288, 57
8622, -898, 378, -229, -70, 140, -70, -361, 282, 64
8623, -898, 378, -228, 70, 140, -70, -349, 283, 60
8624, -898, 377, -228, 70, 140, -70, -355, 279, 57
8625, -899, 379, -229, 0, 140, -140, -358, 276, 46
8626, -899, 378, -230, 0, 210, -70, -348, 280, 49
8627, -898, 378, -229, 0, 140, -70, -354, 288, 52
8628, -899, 377, -229, 70, 140, -140, -358, 286, 58
8629, -899, 377, -229, 70, 140, -70, -354, 279, 57
8630, -899, 377, -228, 70, 140, -70, -358, 277, 52
8631, -899, 379, -229, 70, 210, -70, -351, 274, 55
8632, -898, 378, -229, 0, 210, -70, -352, 277, 52
8633, -898, 378, -229, 0, 210, -70, -357, 279, 48
8634, -899, 378, -229, 0, 210, -70, -352, 285, 57
8635, -898, 378, -229, 70, 140, -70, -352, 286, 57
8636, -899, 379, -229, 0, 140, -70, -361, 276, 54
8637, -898, 378, -229, 0, 140, -70, -363, 279, 48
8638, -897, 378, -229, 0, 210, -70, -360, 283, 55
8639, -899, 378, -229, 0, 140, -70, -357, 286, 46
8640, -898, 378, -227, 0, 210, -70, -352, 282, 54
8641, -898, 378, -228, 70, 280, -140, -352, 276, 58
8642, -900, 377, -230, 0, 280, -70, -355, 286, 64
8643, -899, 378, -228, 0, 140, -70, -345, 280, 52
8644, -898, 378, -229, -70, 70, -140, -351, 288, 54
8645, -898, 379, -228, -70, 140, -70, -351, 280, 49
8646, -898, 378, -228, -70, 140, -70, -357, 282, 52
8647, -898, 377, -229, 0, 140, -70, -358, 280, 55
8648, -899, 378, -230, -70, 210, -70, -357, 285, 58
8649, -898, 378, -229, 0, 210, -70, -352, 279, 51
8650, -899, 379, -229, -70, 140, 0, -349, 288, 60
8651, -898, 378, -230, -70, 140, -70, -352, 282, 51
8652, -899, 377, -228, -70, 70, -70, -352, 283, 55
8653, -896, 377, -228, -70, 280, -70, -349, 282, 51
8654, -899, 377, -230, 70, 70, -70, -352, 279, 51
8655, -899, 377, -229, 0, 140, -140, -355, 277, 51
8656, -899, 378, -229, 0, 70, -70, -355, 285, 39
8657, -899, 378, -229, -70, 70, -70, -346, 277, 48
8658, -898, 378, -229, -70, 140, -70, -361, 286, 58
8659, -899, 377, -230, -70, 70, -70, -358, 285, 57
8660, -898, 377, -228, 0, 140, -70, -354, 279, 49
8661, -899, 377, -229, 0, 210, -70, -349, 283, 57
8662, -899, 378, -229, 0, 210, -140, -348, 277, 49
8663, -898, 378, -229, 0, 140, -70, -355, 282, 58
8664, -898, 377, -229, 0, 140, -70, -349, 280, 63
8665, -899, 377, -229, -70, 210, -70, -352, 282, 58
8666, -898, 377, -229, 70, 210, -70, -361, 283, 42
8667, -899, 379, -229, 0, 70, -70, -354, 286, 49
8668, -899, 378, -228, -70, 70, -70, -357, 285, 54
8669, -898, 378, -229, 0, 140, -70, -348, 292, 57
8670, -898, 377, -229, 0, 140, -70, -355, 285, 52
8671, -899, 378, -228, -70, 210, -70, -352, 282, 60
8672, -898, 378, -228, 0, 70, -70, -352, 280, 63
8673, -899, 378, -228, 70, 140, -70, -349, 288, 48
8674, -899, 378, -229, 0, 140, -70, -355, 280, 52
8675, -899, 378, -230, -70, 210, -70, -363, 279, 46
8676, -898, 377, -228, 0, 140, -70, -355, 279, 42
8677, -898, 377, -229, 0, 140, -70, -349, 279, 42
8678, -898, 378, -229, 0, 210, -70, -346, 277, 42
8679, -898, 378, -229, 70, 140, -140, -351, 289, 51
8680, -899, 378, -228, 0, 210, -70, -355, 279, 52
8681, -899, 378, -229, -70, 140, -70, -360, 273, 52
8682, -898, 378, -228, 0, 140, -70, -354, 285, 46
8683, -899, 377, -229, 0, 140, -70, -352, 277, 45
8684, -899, 378, -229, 70, 210, -70, -355, 282, 49
8685, -898, 378, -228, -70, 140, -70, -360, 280, 51
8686, -898, 379, -229, 0, 280, -70, -352, 274, 42
8687, -898, 378, -230, 0, 140, -70, -358, 277, 54
8688, -898, 377, -228, 0, 210, 0, -357, 282, 51
8689, -899, 378, -229, 0, 210, -70, -354, 282, 45
8690, -898, 379, -228, 0, 210, 0, -349, 280, 52
8691, -898, 378, -229, 0, 210, -70, -360, 289, 48
8692, -898, 378, -229, 0, 140, -140, -358, 267, 49
8693, -899, 377, -229, 70, 70, -70, -358, 276, 55
8694, -898, 377, -228, 70, 210, -70, -360, 274, 54
8695, -899, 378, -229, 0, 140, -140, -357, 286, 49
8696, -898, 378, -230, 0, 210, -70, -358, 294, 54
8697, -899, 378, -229, 0, 140, -70, -352, 288, 45
8698, -898, 378, -229, -70, 140, -70, -357, 285, 49
8699, -898, 378, -228, 70, 140, -140, -355, 280, 52
8700, -899, 378, -229, 70, 140, -70, -357, 283, 61
8701, -898, 378, -228, 70, 140, -140, -343, 274, 52
8702, -898, 378, -229, 0, 210, -70, -354, 277, 52
8703, -898, 378, -229, -70, 140, -70, -348, 277, 49
8704, -898, 378, -229, 0, 140, -70, -352, 277, 48
8705, -898, 378, -228, -70, 140, -70, -348, 280, 54
8706, -898, 377, -229, 0, 140, -70, -358, 276, 48
8707, -899, 377, -228, 0, 140, -70, -361, 283, 42
8708, -898, 378, -228, -70, 140, -140, -357, 276, 57
8709, -899, 377, -229, 0, 210, -70, -357, 277, 60
8710, -898, 378, -230, -70, 140, -70, -352, 294, 60
8711, -898, 378, -228, -70, 210, -70, -349, 276, 49
8712, -899, 378, -228, 0, 140, -70, -357, 289, 58
8713, -898, 378, -229, -70, 210, -70, -352, 292, 63
8714, -898, 378, -229, 0, 210, -70, -361, 283, 63
8715, -899, 377, -229, 0, 210, 0, -357, 280, 46
8716, -898, 378, -229, -140, 70, -140, -358, 280, 58
8717, -899, 377, -230, 0, 210, -70, -358, 276, 48
8718, -898, 378, -229, 0, 210, -70, -351, 279, 49
8719, -898, 378, -229, 0, 140, -70, -355, 283, 54
8720, -899, 378, -228, 0, 140, -70, -354, 283, 52
8721, -898, 378, -229, 0, 140, -70, -355, 291, 51
8722, -899, 378, -228, 70, 70, -70, -346, 283, 55
8723, -899, 378, -229, 0, 210, -70, -355, 280, 55
8724, -899, 377, -229, 0, 210, -140, -351, 283, 54
8725, -899, 378, -229, 70, 210, -70, -349, 279, 49
8726, -898, 379, -229, 0, 210, -70, -352, 283, 55
8727, -899, 378, -228, 0, 140, -70, -358, 279, 58
8728, -899, 378, -229, 0, 140, -70, -357, 280, 55
8729, -898, 378, -229, 70, 210, -70, -352, 280, 54
8730, -898, 378, -228, 0, 210, -70, -358, 276, 54
8731, -898, 378, -229, -70, 140, -70, -351, 282, 55
8732, -898, 378, -229, 70, 210, -70, -354, 286, 58
8733, -898, 378, -228, -70, 140, -70, -348, 280, 52
8734, -898, 378, -229, 0, 140, -70, -351, 279, 54
8735, -898, 377, -229, 0, 210, -70, -355, 283, 54
8736, -898, 378, -228, 0, 140, -70, -355, 282, 52
8737, -899, 378, -229, -70, 140, -70, -360, 285, 52
8738, -899, 378, -229, 0, 140, -70, -355, 283, 57
8739, -898, 377, -229, 70, 140, -140, -360, 274, 54
8740, -898, 378, -230, 0, 210, -70, -355, 285, 51
8741, -899, 377, -229, 0, 210, -70, -352, 285, 54
8742, -899, 378, -228, 0, 70, -70, -360, 292, 54
8743, -898, 378, -228, 70, 210, 0, -357, 285, 60
8744, -898, 377, -228, 0, 140, -70, -357, 288, 58
8745, -897, 377, -229, 0, 210, -70, -355, 279, 51
8746, -898, 378, -229, 0, 140, -70, -357, 280, 54
8747, -899, 378, -229, 0, 140, -70, -361, 273, 51
8748, -898, 378, -228, 0, 210, -70, -354, 286, 51
8749, -899, 379, -228, 0, 140, -70, -351, 274, 43
8750, -899, 378, -230, 0, 140, -70, -355, 285, 54
8751, -898, 378, -229, 0, 140, -70, -358, 274, 55
8752, -899, 378, -230, 70, 210, -70, -360, 291, 49
8753, -898, 378, -228, 70, 210, -70, -360, 285, 46
8754, -899, 378, -229, 70, 140, -70, -357, 276, 60
8755, -899, 378, -229, 0, 70, -70, -355, 285, 42
8756, -898, 378, -230, 70, 70, -70, -348, 285, 60
8757, -897, 378, -228, 0, 140, -70, -345, 283, 54
8758, -899, 378, -229, -70, 140, -70, -364, 280, 57
8759, -898, 378, -228, 0, 210, -70, -364, 288, 46
8760, -898, 378, -229, 0, 140, -70, -354, 285, 57
8761, -898, 378, -229, -70, 140, -70, -355, 283, 55
8762, -899, 377, -229, -70, 140, -70, -354, 280, 54
8763, -898, 377, -228, 0, 140, -70, -358, 285, 58
8764, -898, 378, -229, 0, 140, -70, -354, 288, 54
8765, -898, 378, -229, 70, 210, -70, -351, 283, 40
8766, -899, 378, -229, 0, 140, -70, -361, 280, 52
8767, -898, 377, -229, 0, 210, -70, -352, 279, 49
8768, -899, 378, -228, 0, 210, -70, -352, 273, 57
8769, -899, 378, -228, 0, 140, -70, -360, 285, 57
8770, -898, 377, -228, 0, 280, -70, -358, 280, 52
8771, -898, 378, -228, -70, 70, -70, -354, 285, 55
8772, -899, 378, -229, -70, 210, -70, -349, 286, 58
8773, -898, 378, -229, -70, 140, -70, -358, 289, 63
8774, -899, 378, -229, 0, 210, -140, -361, 280, 58
8775, -899, 379, -228, 0, 210, -70, -348, 289, 46
8776, -897, 378, -229, 0, 140, -70, -363, 280, 52
8777, -898, 378, -229, 70, 210, -70, -358, 282, 58
8778, -898, 378, -228, -70, 210, -70, -354, 279, 52
8779, -898, 378, -228, -70, 140, -70, -358, 283, 60
8780, -898, 378, -230, 0, 140, -70, -352, 280, 52
8781, -899, 378, -230, 70, 70, -70, -360, 280, 51
8782, -899, 378, -229, 0, 140, -70, -364, 282, 48
8783, -899, 378, -228, 0, 210, -70, -355, 288, 57
8784, -899, 378, -228, -70, 210, -70, -355, 270, 49
8785, -898, 378, -228, -70, 210, -70, -358, 286, 54
8786, -898, 378, -229, -70, 140, -70, -361, 279, 51
8787, -899, 376, -228, 70, 210, -70, -355, 283, 48
8788, -899, 378, -229, 0, 140, -70, -357, 279, 49
8789, -898, 378, -229, 0, 140, -70, -354, 274, 51
8790, -899, 378, -230, 0, 210, 0, -358, 279, 57
8791, -898, 378, -229, 0, 140, -70, -348, 274, 51
8792, -898, 378, -229, 70, 210, -70, -357, 282, 55
8793, -898, 378, -229, 0, 210, -70, -360, 277, 51
8794, -899, 377, -229, 0, 140, -70, -354, 283, 57
8795, -899, 377, -229, 0, 210, -70, -349, 285, 57
8796, -898, 377, -229, 0, 210, -70, -351, 289, 58
8797, -899, 378, -228, 0, 140, -70, -348, 279, 49
8798, -898, 378, -228, 0, 140, -70, -357, 279, 52
8799, -898, 378, -228, 0, 140, -70, -351, 280, 54
8800, -898, 378, -230, 0, 140, -70, -352, 277, 55
8801, -898, 377, -229, 0, 280, -70, -351, 277, 48
8802, -899, 378, -231, 0, 210, -70, -360, 280, 57
8803, -898, 378, -229, 0, 210, -70, -346, 280, 58
8804, -898, 378, -229, 0, 140, -70, -358, 285, 64
8805, -899, 378, -229, -70, 140, 0, -345, 276, 40
8806, -899, 378, -228, 70, 140, -70, -349, 282, 55
8807, -898, 377, -228, 0, 140, -70, -355, 282, 55
8808, -899, 378, -228, 0, 210, -70, -363, 285, 49
8809, -898, 378, -229, 0, 140, -70, -355, 274, 48
8810, -899, 378, -229, 0, 210, -70, -357, 285, 55
8811, -898, 377, -229, -70, 140, -70, -355, 282, 57
8812, -899, 378, -228, 0, 210, -70, -354, 279, 58
8813, -898, 377, -229, 0, 70, -70, -357, 279, 52
8814, -898, 378, -228, 0, 210, -70, -349, 283, 57
8815, -898, 378, -228, 0, 210, -140, -364, 280, 51
8816, -899, 378, -229, 0, 140, -70, -355, 274, 61
8817, -898, 377, -229, 0, 280, -70, -354, 274, 51
8818, -899, 378, -229, 0, 210, -70, -354, 283, 58
8819, -899, 378, -230, 0, 210, -70, -351, 288, 45
8820, -900, 378, -229, 0, 210, -70, -357, 285, 46
8821, -899, 379, -229, 0, 140, -70, -358, 279, 52
8822, -898, 378, -229, 0, 140, -70, -351, 292, 60
8823, -898, 378, -229, 0, 140, -70, -354, 279, 46
8824, -898, 377, -229, 0, 140, -70, -358, 282, 55
8825, -898, 377, -228, 0, 210, -70, -351, 274, 43
8826, -898, 378, -229, 0, 140, -70, -355, 277, 61
8827, -899, 378, -230, -70, 140, 0, -360, 283, 52
8828, -899, 378, -230, 0, 140, -70, -354, 277, 54
8829, -899, 378, -229, -70, 280, -70, -360, 277, 57
8830, -899, 377, -228, 0, 210, -70, -352, 279, 43
8831, -899, 378, -229, 0, 140, -70, -354, 280, 57
8832, -899, 378, -229, 0, 140, -70, -352, 283, 51
8833, -898, 378, -229, -70, 210, -70, -352, 286, 49
8834, -899, 378, -229, 0, 140, -70, -360, 283, 60
8835, -898, 378, -228, 0, 210, -70, -360, 285, 45
8836, -899, 377, -228, 0, 140, -140, -355, 285, 49
8837, -898, 377, -228, 0, 140, -70, -354, 274, 45
8838, -898, 377, -229, -70, 140, -70, -360, 285, 51
8839, -899, 379, -229, 70, 140, -70, -351, 280, 51
8840, -898, 379, -229, 0, 210, -70, -349, 280, 52
8841, -899, 378, -230, 0, 140, -70, -352, 277, 49
8842, -898, 378, -229, 0, 140, -140, -346, 280, 51
8843, -897, 378, -229, 0, 210, -70, -345, 280, 54
8844, -898, 378, -228, 0, 140, -70, -351, 285, 58
8845, -898, 378, -229, -70, 140, -70, -354, 291, 48
8846, -898, 378, -230, 0, 140, -70, -349, 288, 55
8847, -899, 378, -229, 70, 140, -140, -354, 280, 46
8848, -899, 378, -229, 0, 210, -70, -355, 282, 63
8849, -899, 378, -229, 0, 70, -70, -349, 288, 48
8850, -898, 377, -229, 0, 210, -140, -354, 268, 52
8851, -898, 378, -229, 0, 210, -70, -366, 279, 54
8852, -898, 378, -229, 0, 140, -70, -355, 282, 60
8853, -899, 378, -229, 0, 140, -140, -357, 282, 60
8854, -899, 377, -229, 0, 140, -70, -361, 285, 55
8855, -898, 379, -228, 0, 140, -70, -352, 283, 40
8856, -900, 378, -229, 0, 210, -70, -363, 270, 52
8857, -898, 378, -229, 70, 140, -70, -358, 282, 52
8858, -898, 378, -229, 0, 140, -70, -352, 286, 52
8859, -899, 379, -229, 0, 140, -70, -355, 286, 54
8860, -898, 377, -229, 0, 210, -70, -358, 288, 58
8861, -899, 377, -229, 0, 210, -70, -363, 285, 57
8862, -899, 378, -229, 0, 210, -70, -361, 270, 61
8863, -899, 378, -229, 0, 140, -70, -354, 282, 46
8864, -899, 378, -228, 0, 140, -140, -358, 282, 60
8865, -899, 378, -228, 0, 140, -70, -357, 283, 42
8866, -898, 378, -228, -70, 140, -70, -355, 283, 61
8867, -899, 378, -229, -70, 210, -140, -355, 286, 54
8868, -899, 378, -228, 0, 140, -70, -351, 289, 57
8869, -899, 379, -229, -70, 140, -70, -348, 283, 43
8870, -898, 378, -228, 0, 210, -70, -357, 283, 57
8871, -899, 376, -229, 0, 210, -70, -351, 279, 43
8872, -898, 377, -228, -70, 140, -70, -354, 276, 54
8873, -898, 377, -229, 0, 210, -70, -357, 279, 54
8874, -898, 378, -228, 0, 140, -70, -355, 286, 49
8875, -899, 377, -229, 0, 210, -70, -358, 283, 49
8876, -898, 379, -228, -70, 140, -70, -349, 282, 58
8877, -899, 378, -229, 0, 140, -70, -355, 286, 51
8878, -899, 377, -229, -70, 140, -70, -352, 279, 45
8879, -898, 377, -229, 0, 210, -70, -360, 285, 64
8880, -898, 377, -228, -70, 210, 0, -349, 285, 43
8881, -898, 378, -228, 0, 140, -70, -346, 277, 58
8882, -899, 378, -230, -70, 140, -70, -351, 276, 55
8883, -898, 378, -228, 0, 70, -70, -357, 283, 55
8884, -898, 379, -229, 0, 140, -70, -354, 280, 48
8885, -899, 378, -229, 0, 140, -70, -366, 279, 57
8886, -898, 377, -228, 0, 140, -70, -358, 286, 51
8887, -897, 377, -228, 0, 210, -70, -360, 282, 57
8888, -894, 374, -229, 70, 140, -70, -355, 283, 51
8889, -879, 362, -213, 350, 770, -70, -348, 276, 55
8890, -890, 383, -212, 770, 1050, 70, -358, 280, 37
8891, -941, 401, -274, 70, 1190, 140, -352, 286, 49
8892, -873, 404, -207, -280, -1260, -280, -360, 279, 49
8893, -933, 384, -265, -910, -1260, -280, -354, 282, 58
8894, -853, 361, -181, -280, -700, -140, -360, 283, 58
8895, -833, 345, -185, 280, -70, -140, -355, 274, 43
8896, -927, 366, -256, 700, 3710, 280, -351, 283, 52
8897, -856, 371, -197, 1400, 1050, 70, -357, 270, 52
8898, -896, 364, -247, 1610, 4620, 350, -361, 280, 46
8899, -966, 375, -266, 1890, 4340, 490, -358, 283, 55
8900, -892, 409, -231, 1190, 1680, 210, -364, 279, 45
8901, -918, 432, -276, 210, 70, -70, -358, 279, 55
8902, -865, 403, -211, -280, -630, -210, -361, 292, 42
8903, -928, 354, -237, -490, 490, -140, -351, 267, 52
8904, -894, 374, -243, 350, 0, -70, -357, 283, 52
8905, -885, 386, -224, 420, 2170, 280, -351, 279, 52
8906, -900, 378, -224, 420, 980, 70, -352, 282, 58
8907, -927, 396, -250, -140, 490, 0, -360, 288, 49
8908, -918, 416, -233, -1610, -3220, -490, -351, 282, 55
8909, -928, 400, -253, -2520, -4550, -700, -354, 288, 52
8910, -885, 387, -227, -3010, -7560, -1050, -354, 288, 52
8911, -873, 360, -219, -2590, -5110, -770, -351, 283, 52
8912, -864, 319, -201, -1330, -2940, -420, -357, 288, 55
8913, -876, 343, -215, 1330, 1330, 210, -346, 279, 46
8914, -884, 384, -223, 1820, 5390, 560, -357, 291, 48
8915, -921, 400, -241, 1750, 3920, 350, -354, 285, 40
8916, -932, 413, -255, 770, 2170, 210, -357, 276, 54
8917, -915, 417, -246, -350, -1120, -210, -355, 282, 49
8918, -893, 380, -223, -1750, -4270, -630, -355, 273, 58
8919, -881, 351, -218, -1470, -3010, -420, -355, 280, 46
8920, -870, 337, -205, -490, -1120, -210, -346, 286, 57
8921, -886, 344, -213, 560, 1610, 70, -348, 286, 58
8922, -904, 381, -231, 1540, 4270, 490, -361, 285, 49
8923, -914, 402, -239, 1190, 2380, 210, -346, 282, 37
8924, -920, 412, -250, 350, 980, -70, -349, 285, 48
8925, -911, 407, -242, -490, -1120, -280, -363, 288, 54
8926, -908, 386, -235, -1050, -2030, -350, -349, 294, 57
8927, -880, 356, -216, -560, -1190, -280, -348, 280, 54
8928, -883, 352, -217, 140, 420, -70, -354, 288, 54
8929, -890, 360, -220, 630, 2100, 140, -352, 285, 49
8930, -895, 376, -226, 1050, 2310, 210, -351, 289, 52
8931, -911, 394, -237, 770, 2450, 210, -354, 280, 48
8932, -912, 401, -243, -350, -560, -210, -358, 283, 60
8933, -909, 389, -235, -840, -1820, -350, -358, 273, 52
8934, -894, 376, -228, -1050, -2520, -420, -360, 280, 52
8935, -884, 362, -218, -700, -1540, -280, -366, 270, 51
8936, -892, 357, -221, 490, 1330, 70, -358, 283, 48
8937, -888, 374, -227, 980, 1540, 140, -354, 282, 52
8938, -898, 382, -225, 980, 3080, 280, -357, 283, 55
8939, -922, 390, -244, 630, 1470, 140, -361, 291, 54
8940, -904, 401, -235, 70, 70, -70, -354, 283, 57
8941, -897, 371, -224, -490, -210, -140, -357, 285, 46
8942, -895, 364, -225, -280, -1190, -280, -351, 277, 51
8943, -884, 365, -219, 70, 560, 0, -357, 283, 42
8944, -889, 364, -223, 560, 1120, 70, -352, 282, 52
8945, -893, 365, -223, 910, 2660, 280, -352, 285, 45
8946, -889, 391, -225, 1190, 3500, 350, -352, 283, 52
8947, -920, 368, -232, 980, 2870, 210, -349, 277, 37
8948, -931, 390, -245, 350, 840, 0, -358, 280, 55
8949, -924, 433, -261, -490, -1540, -210, -346, 276, 54
8950, -922, 372, -238, -1960, -2660, -420, -352, 283, 46
8951, -904, 362, -215, -1960, -4900, -630, -354, 286, 52
8952, -910, 380, -249, -1960, -4830, -490, -354, 282, 43
8953, -842, 373, -198, -1260, -3290, -280, -355, 286, 55
8954, -925, 359, -238, -980, 280, 70, -349, 274, 46
8955, -958, 396, -262, -1120, -560, 210, -355, 286, 54
8956, -908, 411, -224, -1470, -5670, 0, -358, 282, 49
8957, -967, 398, -243, -2380, -2940, 630, -354, 274, 54
8958, -998, 380, -224, -3080, -8050, 840, -349, 283, 48
8959, -1000, 346, -238, -3640, -11340, 1540, -354, 286, 45
8960, -914, 346, -248, -2240, -6720, 4480, -354, 277, 52
8961, -903, 368, -240, -1050, -210, 6510, -357, 268, 48
8962, -931, 384, -247, -560, 3640, 7980, -364, 286, 45
8963, -938, 398, -247, -700, 4550, 8960, -352, 279, 45
8964, -965, 437, -248, -3010, -280, 9380, -363, 279, 46
8965, -953, 431, -233, -4690, -4620, 9100, -358, 286, 49
8966, -935, 407, -221, -5810, -8610, 8750, -354, 276, 42
8967, -932, 390, -219, -6580, -10780, 8540, -360, 286, 55
8968, -925, 380, -210, -6930, -13160, 8260, -358, 282, 43
8969, -906, 377, -195, -7210, -16100, 7840, -354, 286, 52
8970, -899, 381, -196, -7140, -17430, 7490, -363, 283, 37
8971, -890, 386, -199, -7000, -17640, 7350, -355, 286, 43
8972, -886, 392, -206, -6860, -17710, 7210, -357, 279, 42
8973, -874, 401, -202, -6720, -14910, 7560, -354, 298, 31
8974, -884, 403, -205, -6090, -12880, 7980, -351, 282, 42
8975, -891, 401, -207, -5810, -11550, 8400, -355, 283, 40
8976, -884, 400, -198, -5530, -10080, 8680, -352, 288, 39
8977, -891, 405, -197, -5390, -8820, 8890, -358, 295, 34
8978, -882, 400, -183, -5110, -8190, 8890, -357, 286, 34
8979, -872, 396, -179, -4830, -7910, 8750, -372, 294, 42
8980, -866, 396, -179, -4340, -7000, 8610, -352, 288, 39
8981, -850, 395, -173, -3850, -6020, 8400, -361, 295, 30
8982, -846, 394, -173, -3080, -3150, 8470, -367, 300, 33
8983, -861, 404, -182, -1610, 2100, 8610, -360, 297, 30
8984, -876, 412, -185, -1190, 3430, 8680, -364, 298, 40
8985, -892, 419, -190, -1050, 4200, 8820, -354, 286, 43
8986, -903, 423, -187, -1260, 3780, 8750, -366, 292, 34
8987, -920, 428, -191, -2030, 1330, 8890, -361, 292, 37
8988, -934, 427, -194, -2520, 70, 9100, -363, 292, 37
8989, -938, 427, -193, -3010, -1400, 9380, -361, 295, 36
8990, -940, 428, -195, -3430, -2520, 9800, -363, 300, 37
8991, -939, 430, -197, -3850, -3360, 10360, -361, 295, 36
8992, -955, 438, -203, -4830, -5110, 11690, -361, 307, 34
8993, -957, 441, -202, -5390, -6230, 12530, -364, 300, 36
8994, -960, 441, -203, -5950, -7420, 13370, -372, 294, 28
8995, -952, 440, -196, -6440, -8400, 14210, -364, 303, 25
8996, -958, 441, -199, -6930, -8610, 15260, -378, 300, 31
8997, -952, 437, -193, -7490, -9310, 17430, -360, 298, 30
8998, -946, 437, -189, -7700, -9310, 18550, -370, 301, 40
8999, -955, 441, -194, -7840, -8470, 19810, -363, 307, 34
9000, -950, 443, -191, -7980, -8610, 21070, -367, 301, 27
9001, -949, 448, -193, -8330, -7630, 23590, -378, 300, 27
9002, -946, 459, -189, -8610, -7070, 24850, -375, 304, 40
9003, -941, 461, -185, -8750, -7070, 26040, -369, 304, 28
9004, -947, 462, -188, -9030, -5950, 27440, -384, 309, 28
9005, -943, 466, -183, -9100, -5950, 28700, -372, 312, 28
9006, -954, 474, -185, -9730, -5460, 31290, -379, 306, 31
9007, -959, 478, -183, -10150, -5390, 32620, -369, 316, 24
9008, -967, 483, -186, -10710, -6370, 33810, -379, 316, 28
9009, -961, 486, -182, -11270, -7350, 35000, -378, 309, 34
9010, -963, 487, -181, -11830, -8260, 36190, -387, 321, 21
9011, -946, 487, -171, -12670, -9730, 38710, -391, 315, 21
9012, -939, 489, -168, -12810, -9940, 39900, -391, 316, 28
9013, -938, 496, -169, -13090, -10010, 41090, -396, 319, 28
9014, -931, 503, -166, -13370, -10360, 42350, -405, 325, 31
9015, -917, 505, -158, -13580, -9030, 44870, -402, 330, 19
9016, -898, 517, -160, -13580, -8540, 45990, -400, 331, 24
9017, -889, 527, -155, -13510, -7210, 47250, -399, 324, 21
9018, -894, 533, -156, -13510, -6090, 48440, -409, 330, 25
9019, -894, 542, -148, -13650, -5390, 49490, -409, 327, 21
9020, -887, 565, -147, -14420, -6790, 51170, -409, 322, 19
9021, -891, 573, -151, -14840, -7350, 51730, -412, 339, 13
9022, -876, 588, -142, -15330, -8750, 52080, -412, 340, 19
9023, -908, 659, -148, -16100, -8960, 52010, -421, 336, 22
9024, -963, 782, -177, -17360, -14000, 50680, -421, 348, 19
9025, -980, 821, -193, -20020, -24080, 46270, -427, 346, 15
9026, -861, 689, -178, -20300, -23030, 44870, -421, 348, 13
9027, -699, 568, -139, -19390, -19390, 44940, -433, 349, 10
9028, -649, 521, -117, -18200, -9310, 46340, -430, 352, 4
9029, -778, 540, -81, -17500, -6930, 47040, -429, 351, 0
9030, -847, 575, -88, -17850, -10920, 46060, -433, 352, 13
9031, -820, 616, -60, -17850, -14140, 44940, -438, 345, 9
9032, -787, 627, -81, -17780, -16800, 44100, -448, 352, 7
9033, -685, 598, -43, -17080, -16800, 43680, -442, 354, 7
9034, -664, 582, -7, -14770, -11900, 43400, -445, 355, 16
9035, -696, 629, -17, -13720, -12250, 42700, -442, 358, 10
9036, -693, 651, -9, -12810, -14840, 41720, -445, 355, 10
9037, -733, 636, -30, -12810, -17290, 40390, -447, 360, 1
9038, -690, 583, -29, -12600, -24360, 38570, -454, 355, -13
9039, -610, 614, -40, -12530, -24010, 36120, -465, 364, -1
9040, -569, 663, -22, -12250, -15470, 35910, -457, 367, 1
9041, -564, 674, -24, -11270, -15120, 35140, -457, 358, -3
9042, -541, 680, 15, -10430, -6720, 34930, -460, 369, 4
9043, -599, 661, 10, -8260, -1120, 33460, -457, 370, -6
9044, -672, 639, -33, -7560, -4340, 32200, -465, 358, 0
9045, -642, 641, -2, -7420, -3710, 31080, -471, 367, -4
9046, -674, 660, -38, -7140, -5670, 29960, -468, 369, -16
9047, -631, 691, -8, -7210, -5390, 29120, -471, 370, 0
9048, -639, 737, -14, -7980, -8050, 27650, -477, 369, -7
