Time [mS], AccX [mg],AccY [mg],AccZ [mg],GyroX [mdps],GyroY [mdps],GyroZ [mdps],MagX [mgauss],MagY [mgauss],MagZ [mgauss]
96527, -181, 971, 191, -140, 560, -910, -315, 237, -289
96528, -170, 967, 193, -140, 350, -770, -321, 246, -286
96529, -170, 965, 193, -70, 630, -560, -321, 252, -292
96530, -160, 963, 193, 0, 840, -350, -325, 238, -297
96531, -153, 966, 193, 280, 1050, -280, -322, 243, -298
96532, -159, 968, 194, 280, 1330, -280, -318, 246, -285
96533, -162, 968, 194, 280, 1820, -210, -321, 246, -295
96534, -169, 968, 194, 0, 2310, -140, -318, 238, -304
96535, -171, 968, 193, -210, 1960, -350, -316, 244, -295
96536, -171, 967, 195, 0, -560, -840, -330, 252, -294
96537, -174, 968, 195, -210, -1190, -910, -315, 240, -295
96538, -174, 967, 196, -280, -1820, -980, -327, 250, -289
96539, -170, 967, 195, -420, -2590, -1190, -324, 243, -297
96540, -166, 967, 199, -420, -2800, -1190, -322, 241, -283
96541, -164, 964, 201, -560, -2310, -1820, -324, 240, -300
96542, -165, 962, 202, -490, -1680, -1890, -324, 244, -286
96543, -164, 963, 202, -280, -700, -1680, -322, 241, -294
96544, -165, 963, 201, 70, 560, -1470, -319, 253, -288
96545, -161, 962, 194, -70, 910, -1190, -319, 240, -294
96546, -155, 965, 208, 560, 3010, -770, -328, 243, -289
96547, -155, 964, 199, -630, 1470, -420, -315, 241, -286
96548, -187, 969, 189, 0, -350, -770, -313, 231, -285
96549, -176, 978, 212, -560, -2030, -3640, -318, 246, -298
96550, -193, 966, 185, -490, 4270, -630, -325, 247, -289
96551, -167, 962, 200, -420, 2590, -420, -328, 249, -291
96552, -175, 963, 194, -280, 1750, -350, -313, 231, -298
96553, -171, 964, 194, -210, 1400, -280, -319, 243, -294
96554, -166, 965, 196, -350, 2170, -210, -322, 241, -288
96555, -172, 967, 193, -490, 2730, -140, -321, 252, -294
96556, -166, 968, 197, -490, 2310, -210, -318, 234, -298
96557, -171, 967, 193, -560, 2170, -140, -321, 246, -294
96558, -177, 967, 189, -630, 1960, -210, -324, 247, -294
96559, -177, 967, 191, -910, 1750, -210, -321, 238, -294
96560, -177, 966, 189, -630, 1190, -280, -316, 237, -289
96561, -176, 967, 189, -420, 910, -210, -325, 243, -301
96562, -176, 967, 190, -280, 910, -140, -316, 244, -294
96563, -177, 967, 190, -280, 700, -70, -313, 238, -286
96564, -176, 967, 188, -210, 490, 0, -321, 240, -292
96565, -174, 967, 187, -140, 490, 70, -330, 243, -300
96566, -171, 967, 187, -210, 280, 70, -319, 238, -295
96567, -170, 967, 187, -140, 350, 70, -321, 244, -289
96568, -168, 967, 187, -70, 350, 70, -330, 232, -286
96569, -168, 967, 186, -140, 420, 70, -315, 244, -289
96570, -167, 967, 185, -70, 420, 70, -315, 241, -288
96571, -166, 967, 185, -70, 420, 70, -324, 235, -297
96572, -167, 968, 185, -70, 420, 0, -322, 244, -297
96573, -167, 967, 185, 0, 280, -70, -318, 244, -294
96574, -166, 967, 185, 0, 350, -140, -324, 243, -291
96575, -164, 966, 185, -70, 350, -280, -319, 240, -295
96576, -163, 967, 186, 0, 280, -350, -321, 244, -282
96577, -161, 967, 187, 0, 280, -420, -319, 241, -294
96578, -156, 966, 190, 70, 280, -770, -324, 244, -289
96579, -152, 965, 193, 140, 210, -910, -321, 235, -292
96580, -151, 965, 194, 210, 350, -1120, -328, 241, -291
96581, -149, 964, 196, 210, 350, -1330, -321, 238, -297
96582, -146, 964, 198, 280, 490, -1890, -321, 246, -292
96583, -140, 963, 200, 350, 490, -2170, -318, 244, -297
96584, -137, 963, 202, 490, 560, -2520, -327, 235, -294
96585, -138, 963, 203, 490, 700, -2940, -324, 240, -295
96586, -138, 963, 203, 490, 910, -3220, -325, 246, -300
96587, -142, 967, 202, 490, 1050, -3990, -321, 243, -297
96588, -138, 974, 185, 560, 630, -4270, -324, 246, -304
96589, -152, 962, 199, 630, 1050, -4690, -325, 237, -300
96590, -162, 960, 197, 630, 1260, -4970, -322, 247, -286
96591, -157, 965, 185, 700, 980, -5250, -321, 237, -294
96592, -146, 960, 186, 770, 560, -5810, -327, 243, -289
96593, -155, 972, 177, 840, 700, -6090, -324, 237, -288
96594, -243, 1006, 141, 490, 490, -6090, -331, 240, -289
96595, -200, 1003, 145, 420, 420, -6440, -322, 237, -286
96596, -209, 961, 150, 210, -1610, -6440, -319, 240, -291
96597, -81, 911, 182, 630, -3850, -5950, -322, 235, -301
96598, -199, 947, 169, 1470, -490, -6370, -315, 243, -297
96599, -334, 1019, 162, 1820, 1260, -4970, -316, 247, -291
96600, -430, 1092, 149, 1820, 6090, -4340, -322, 232, -289
96601, -339, 963, 133, -1050, 980, 560, -322, 240, -294
96602, -291, 869, 149, -2240, -5040, 3080, -316, 241, -295
96603, -274, 826, 180, -1960, -6510, 4060, -318, 231, -285
96604, -260, 842, 214, -770, -5740, 4620, -318, 241, -292
96605, -232, 918, 244, 840, -1820, 4130, -315, 231, -297
96606, -137, 1085, 266, 1750, -840, 3640, -319, 241, -291
96607, -113, 1060, 263, 560, -4060, 4060, -319, 241, -298
96608, -140, 991, 252, -700, -4970, 3780, -324, 240, -298
96609, -152, 932, 247, -1750, -4270, 3640, -313, 250, -295
96610, -161, 906, 246, -1610, 2940, 2800, -325, 243, -289
96611, -121, 894, 284, -770, 5460, 2660, -315, 235, -288
96612, -104, 925, 293, 140, 4900, 3080, -328, 238, -298
96613, -150, 970, 266, 840, 3850, 3080, -322, 235, -291
96614, -188, 987, 236, 910, 1890, 2870, -324, 237, -291
96615, -201, 982, 195, -280, -630, 910, -304, 229, -297
96616, -177, 990, 197, -1120, -1400, 280, -322, 240, -309
96617, -125, 983, 217, -1610, -1820, 840, -327, 238, -295
96618, -158, 955, 220, -1470, 0, 1680, -327, 243, -297
96619, -183, 927, 217, -1050, 2030, 2730, -325, 237, -301
96620, -252, 948, 185, 70, 4900, 3570, -310, 244, -285
96621, -258, 970, 169, 210, 4270, 3710, -309, 235, -300
96622, -275, 990, 156, -280, 1680, 4270, -321, 241, -291
96623, -263, 1015, 153, -1050, -840, 4760, -325, 238, -292
96624, -277, 1028, 133, -2660, -2800, 6720, -321, 238, -295
96625, -302, 988, 122, -2800, -1960, 8120, -327, 232, -297
96626, -317, 983, 114, -2800, -630, 9730, -313, 246, -295
96627, -352, 976, 102, -2940, -70, 11690, -322, 244, -291
96628, -356, 951, 104, -2870, -140, 13790, -325, 244, -300
96629, -353, 903, 121, -2100, -2520, 17500, -328, 241, -303
96630, -342, 930, 127, -1820, -4060, 18970, -327, 246, -295
96631, -304, 979, 138, -1960, -5250, 20160, -330, 249, -301
96632, -269, 1025, 145, -2520, -6790, 21210, -315, 240, -297
96633, -223, 1043, 160, -3290, -8120, 22120, -330, 238, -298
96634, -170, 1001, 184, -4760, -8960, 23380, -324, 252, -294
96635, -156, 971, 191, -4970, -7770, 23800, -331, 247, -303
96636, -145, 938, 202, -4690, -5670, 24150, -336, 247, -301
96637, -136, 914, 209, -4270, -4130, 24430, -327, 253, -300
96638, -130, 942, 214, -3500, -3920, 24990, -334, 256, -289
96639, -139, 973, 212, -3360, -4830, 24990, -334, 252, -295
96640, -140, 991, 213, -3710, -5740, 24990, -333, 258, -294
96641, -127, 996, 214, -4060, -6230, 24710, -340, 264, -312
96642, -100, 991, 218, -4550, -6510, 24430, -339, 258, -297
96643, -64, 950, 223, -4900, -6020, 24150, -340, 261, -298
96644, -64, 933, 224, -4620, -5180, 24080, -343, 256, -295
96645, -61, 932, 223, -4200, -4480, 23870, -337, 262, -303
96646, -63, 945, 219, -3780, -4060, 23590, -346, 261, -303
96647, -60, 962, 218, -3570, -4200, 23170, -343, 264, -297
96648, -54, 983, 208, -3710, -5040, 22330, -345, 265, -294
96649, -48, 990, 204, -3990, -4970, 21980, -342, 267, -307
96650, -41, 987, 201, -4130, -4270, 21770, -351, 261, -303
96651, -53, 969, 200, -4270, -3220, 21770, -340, 259, -300
96652, -96, 971, 175, -4340, -1680, 22120, -351, 258, -298
96653, -121, 991, 160, -4410, -1400, 22750, -349, 267, -297
96654, -155, 991, 156, -4410, -980, 23800, -351, 270, -294
96655, -179, 967, 158, -4480, -1190, 24920, -354, 261, -295
96656, -192, 951, 162, -4410, -2450, 25760, -354, 267, -301
96657, -139, 955, 183, -4060, -6930, 26740, -357, 264, -295
96658, -87, 951, 200, -3990, -9590, 26810, -357, 261, -306
96659, -36, 959, 216, -3990, -11410, 26740, -358, 270, -298
96660, 8, 983, 228, -4130, -12040, 26460, -352, 268, -298
96661, 43, 997, 236, -4340, -11340, 26110, -363, 273, -300
96662, 82, 969, 252, -4690, -8050, 24920, -360, 265, -300
96663, 91, 956, 258, -4690, -6510, 24220, -366, 282, -295
96664, 86, 948, 262, -4410, -4970, 23380, -360, 267, -292
96665, 77, 942, 265, -4060, -3990, 22680, -360, 270, -291
96666, 51, 962, 263, -3500, -3850, 21000, -361, 280, -306
96667, 42, 970, 255, -3430, -4480, 20370, -372, 279, -304
96668, 42, 966, 250, -3500, -4970, 19810, -366, 279, -294
96669, 41, 956, 249, -3570, -5110, 19250, -363, 280, -298
96670, 48, 945, 253, -3570, -5040, 18760, -364, 285, -297
96671, 65, 947, 259, -3150, -4340, 17850, -366, 279, -297
96672, 70, 956, 261, -2730, -4060, 17220, -375, 280, -300
96673, 79, 961, 262, -2520, -3920, 16660, -370, 282, -303
96674, 86, 963, 261, -2380, -3990, 15890, -369, 283, -295
96675, 100, 963, 259, -2240, -4130, 15050, -370, 279, -300
96676, 116, 962, 254, -2310, -3990, 13370, -369, 285, -301
96677, 117, 960, 254, -2380, -3360, 12390, -373, 279, -298
96678, 119, 958, 254, -2310, -2520, 11620, -372, 283, -300
96679, 118, 958, 255, -2030, -1750, 10850, -378, 283, -292
96680, 104, 959, 252, -1470, -1050, 9380, -376, 273, -297
96681, 99, 958, 249, -1260, -1120, 8540, -376, 285, -291
96682, 97, 961, 246, -1050, -1470, 7700, -378, 291, -292
96683, 105, 963, 246, -980, -1750, 6860, -367, 288, -306
96684, 108, 964, 245, -1050, -1750, 6160, -378, 285, -297
96685, 102, 966, 242, -910, -980, 4900, -379, 285, -303
96686, 96, 969, 241, -840, -280, 4410, -375, 280, -297
96687, 85, 970, 239, -770, 70, 3990, -372, 285, -300
96688, 77, 970, 237, -630, 280, 3570, -379, 285, -295
96689, 67, 967, 233, -560, 210, 3220, -375, 282, -303
96690, 60, 971, 226, -490, -210, 2520, -391, 289, -297
96691, 60, 967, 227, -420, -420, 2310, -379, 285, -306
96692, 59, 963, 224, -420, -490, 2100, -382, 288, -301
96693, 56, 966, 224, -280, -210, 2030, -382, 286, -300
96694, 33, 978, 221, -210, 420, 2240, -381, 288, -294
96695, 22, 980, 218, -280, 420, 2380, -385, 288, -306
96696, 17, 982, 217, -490, 140, 2590, -384, 294, -297
96697, 11, 983, 216, -490, -70, 2800, -382, 285, -298
96698, 9, 979, 216, -630, -280, 3150, -378, 292, -300
96699, 14, 968, 223, -560, -630, 3780, -378, 285, -303
96700, 19, 966, 228, -490, -840, 4060, -381, 289, -303
96701, 24, 969, 231, -350, -980, 4340, -381, 294, -298
96702, 29, 972, 227, -420, -1120, 4480, -379, 291, -295
96703, 39, 979, 225, -560, -1120, 4690, -375, 289, -297
96704, 55, 982, 222, -1190, -980, 4760, -394, 289, -301
96705, 51, 973, 222, -1400, -630, 4970, -384, 291, -300
96706, 50, 965, 225, -1330, -490, 4970, -385, 282, -300
96707, 48, 967, 222, -1120, -420, 4970, -384, 288, -301
96708, 56, 967, 220, -700, -910, 4760, -381, 291, -307
96709, 58, 964, 220, -560, -1260, 4690, -382, 279, -298
96710, 62, 968, 220, -560, -1400, 4550, -376, 292, -294
96711, 66, 978, 220, -630, -1260, 4550, -387, 282, -300
96712, 71, 983, 220, -770, -1050, 4480, -388, 286, -295
96713, 66, 974, 227, -980, -560, 4410, -382, 288, -301
96714, 61, 969, 228, -980, -490, 4340, -388, 298, -292
96715, 61, 966, 230, -840, -560, 4270, -382, 286, -301
96716, 58, 961, 230, -700, -630, 4270, -376, 283, -297
96717, 59, 959, 233, -490, -1120, 4200, -382, 277, -303
96718, 65, 973, 233, -560, -1050, 4130, -376, 289, -301
96719, 67, 978, 234, -700, -1050, 4060, -376, 288, -304
96720, 69, 975, 237, -770, -840, 4130, -387, 292, -306
96721, 68, 972, 239, -910, -700, 4130, -391, 291, -300
96722, 61, 965, 239, -840, -630, 4130, -384, 286, -297
96723, 61, 960, 240, -700, -630, 4130, -381, 282, -301
96724, 60, 959, 240, -700, -770, 4130, -388, 297, -297
96725, 64, 963, 241, -560, -910, 4130, -381, 280, -304
96726, 66, 970, 241, -630, -1050, 4130, -390, 285, -297
96727, 68, 971, 242, -770, -840, 4130, -382, 283, -297
96728, 69, 970, 243, -910, -770, 4200, -388, 291, -301
96729, 42, 972, 234, -840, -280, 4340, -378, 294, -303
96730, 99, 959, 258, -840, -1190, 4340, -391, 297, -300
96731, 37, 965, 236, -770, -1050, 4410, -387, 292, -300
96732, 37, 967, 233, -630, -560, 4550, -390, 300, -298
96733, 90, 964, 247, -700, -1470, 4550, -391, 283, -310
96734, 60, 971, 243, -700, -840, 4620, -390, 294, -298
96735, 81, 968, 245, -770, -840, 4690, -387, 298, -309
96736, 97, 971, 240, -840, -840, 4830, -390, 289, -306
96737, 396, 1019, 252, -420, 8750, 5740, -396, 291, -301
96738, 214, 1022, 205, -350, 35140, 11410, -388, 294, -295
96739, 24, 964, 222, 70, 45500, 14280, -387, 286, -303
96740, -111, 918, 192, 980, 48020, 15680, -391, 297, -292
96741, -148, 911, 206, 2590, 49420, 17570, -381, 286, -298
96742, -122, 983, 201, 2170, 42840, 18060, -384, 294, -289
96743, -150, 1036, 193, 910, 33320, 18760, -393, 295, -294
96744, -180, 1056, 191, -1190, 22050, 19390, -393, 295, -300
96745, -235, 1064, 189, -5530, -6090, 18340, -394, 294, -294
96746, -211, 955, 210, -6510, -19810, 17220, -394, 294, -289
96747, 106, 821, 251, -6300, -25690, 16450, -397, 300, -289
96748, 97, 868, 241, -5110, -18410, 16940, -399, 298, -286
96749, 127, 953, 277, -4270, -22400, 16800, -396, 306, -289
96750, 219, 929, 319, -4270, -45220, 11340, -396, 297, -291
96751, 202, 1016, 289, -4900, -57960, 5180, -390, 300, -300
96752, 465, 1035, 297, -5810, -70210, -770, -393, 292, -294
96753, 509, 986, 283, -6720, -78960, -6300, -396, 292, -306
96754, 679, 881, 321, -7140, -81130, -10290, -403, 297, -307
96755, 555, 863, 322, -5320, -74200, -16590, -399, 303, -327
96756, 406, 878, 294, -3570, -68180, -19880, -403, 294, -307
96757, 427, 861, 310, -2030, -61740, -22750, -396, 298, -313
96758, 338, 892, 292, -1050, -57750, -25900, -402, 297, -316
96759, 377, 997, 273, -1680, -60130, -31430, -402, 295, -322
96760, 311, 1004, 276, -2870, -64680, -34090, -403, 294, -313
96761, 241, 991, 269, -4200, -70000, -37100, -405, 297, -328
96762, 240, 976, 271, -5530, -75880, -40180, -403, 288, -318
96763, 221, 965, 252, -6580, -81410, -43260, -406, 295, -339
96764, 240, 906, 246, -7910, -88200, -47880, -409, 298, -327
96765, 155, 904, 248, -8120, -90020, -49490, -405, 283, -334
96766, 109, 920, 233, -8680, -95900, -51450, -399, 288, -345
96767, 121, 945, 239, -9240, -99680, -53550, -403, 280, -355
96768, 133, 961, 243, -10220, -102270, -55230, -403, 289, -345
96769, 196, 1010, 215, -12950, -104650, -58380, -414, 289, -361
96770, 212, 996, 235, -14490, -104230, -59570, -403, 285, -363
96771, 205, 990, 214, -15890, -102130, -60620, -411, 277, -372
96772, 194, 976, 245, -17010, -98350, -61460, -405, 271, -385
96773, 155, 916, 252, -17850, -88620, -62370, -405, 273, -385
96774, 171, 918, 211, -18130, -84630, -62160, -409, 279, -382
96775, 204, 924, 246, -18130, -78890, -61460, -408, 273, -390
96776, 250, 916, 220, -17920, -68250, -59780, -403, 264, -390
96777, 195, 892, 257, -17290, -55650, -58240, -414, 262, -400
96778, 86, 904, 283, -15120, -31010, -54250, -403, 258, -397
96779, 76, 943, 278, -13790, -14140, -51730, -403, 258, -409
96780, 93, 968, 284, -12110, 1050, -49700, -405, 265, -402
96781, 113, 958, 284, -10430, 15750, -46900, -399, 264, -406
96782, 66, 941, 269, -8960, 28490, -43820, -397, 255, -403
96783, -91, 921, 245, -6440, 47040, -39480, -390, 259, -406
96784, -198, 883, 256, -5390, 49350, -37800, -393, 252, -405
96785, -378, 848, 267, -4550, 47670, -35280, -388, 253, -405
96786, -549, 863, 279, -3640, 42140, -31850, -387, 249, -405
96787, -872, 1058, 314, -3010, 12180, -24570, -394, 247, -394
96788, -834, 1076, 343, -3500, -3430, -22470, -379, 249, -396
96789, -685, 1024, 345, -4270, -17710, -21070, -388, 247, -405
96790, -540, 946, 327, -4970, -31500, -19950, -388, 244, -399
96791, -288, 864, 306, -5320, -42770, -18900, -379, 246, -405
96792, 291, 887, 328, -4900, -44170, -19670, -379, 250, -405
96793, 462, 900, 360, -4550, -28560, -19320, -387, 246, -414
96794, 457, 925, 384, -3710, -6370, -17780, -382, 244, -415
96795, 218, 1000, 400, -2240, 13370, -15610, -382, 237, -408
96796, 3, 996, 430, -980, 24850, -13230, -382, 244, -400
96797, -251, 874, 467, 700, 33670, -12110, -385, 241, -406
96798, -274, 884, 456, 1330, 33180, -12250, -378, 238, -408
96799, -210, 910, 438, 1610, 30870, -11830, -387, 240, -409
96800, -131, 900, 439, 1890, 29190, -10640, -379, 237, -402
96801, -82, 902, 466, 1960, 32620, -8050, -375, 243, -402
96802, -103, 949, 466, 1820, 35840, -7350, -370, 243, -411
96803, -99, 963, 466, 1890, 38850, -6930, -366, 235, -400
96804, -87, 922, 467, 2030, 42280, -6720, -369, 238, -402
96805, -59, 872, 468, 2450, 44940, -6580, -369, 238, -409
96806, -42, 859, 469, 3640, 49980, -6440, -375, 244, -400
96807, -60, 878, 472, 4340, 52850, -6090, -366, 238, -390
96808, -61, 883, 477, 4970, 55650, -5950, -363, 238, -391
96809, -68, 893, 473, 5320, 57890, -6090, -367, 238, -393
96810, -65, 906, 470, 5460, 58100, -6440, -357, 238, -391
96811, -12, 942, 452, 5530, 61040, -6650, -351, 240, -393
96812, -10, 921, 456, 5810, 65240, -6580, -352, 240, -381
96813, 0, 883, 454, 6300, 69720, -6720, -346, 234, -382
96814, -15, 881, 450, 7000, 73430, -6580, -346, 232, -379
96815, -47, 924, 420, 8190, 79100, -6160, -348, 240, -382
96816, -121, 901, 418, 8330, 80220, -6160, -348, 235, -363
96817, -182, 886, 403, 8050, 78190, -6160, -340, 237, -372
96818, -187, 893, 408, 7070, 73500, -6370, -342, 232, -355
96819, -182, 884, 406, 6090, 69090, -6720, -330, 235, -354
96820, -115, 822, 418, 6300, 68250, -6300, -336, 231, -354
96821, -56, 823, 439, 7420, 71400, -5390, -337, 228, -354
96822, -96, 888, 429, 8540, 73780, -4830, -337, 226, -352
96823, -189, 958, 439, 9030, 72940, -4480, -328, 225, -343
96824, -251, 1056, 427, 8890, 63630, -4410, -324, 238, -334
96825, -245, 982, 398, 7910, 60760, -4410, -322, 235, -330
96826, -217, 919, 363, 7910, 59220, -3710, -325, 228, -325
96827, -219, 959, 339, 7770, 57960, -2450, -331, 228, -336
96828, -287, 979, 320, 6930, 55160, -1400, -315, 237, -319
96829, -442, 951, 324, 3430, 39690, -280, -313, 229, -324
96830, -388, 998, 330, 1610, 29890, -70, -327, 222, -324
96831, -331, 1049, 345, 350, 23520, 420, -316, 226, -324
96832, -243, 985, 363, -70, 21560, 1190, -316, 231, -321
96833, -214, 902, 376, 420, 21910, 1960, -312, 226, -327
96834, -175, 899, 365, 1960, 26250, 4200, -316, 229, -313
96835, -211, 916, 342, 2660, 28420, 5460, -316, 231, -315
96836, -276, 924, 326, 2800, 28980, 5950, -315, 232, -315
96837, -335, 962, 315, 2100, 25760, 6230, -307, 231, -312
96838, -312, 998, 312, -770, 13160, 6580, -310, 234, -312
96839, -283, 1006, 281, -2380, 7350, 7000, -310, 237, -313
96840, -276, 1020, 308, -4340, 3780, 7140, -309, 231, -316
96841, -341, 949, 300, -6300, -1750, 6930, -318, 234, -318
96842, -314, 840, 377, -7420, -8820, 6440, -315, 240, -313
96843, -60, 952, 386, -4830, -6860, 7140, -324, 228, -318
96844, -2, 980, 391, -1470, 5390, 8260, -319, 234, -307
96845, -140, 841, 387, 1330, 15260, 8680, -312, 228, -315
96846, -288, 731, 363, 2100, 12740, 8610, -321, 240, -316
96847, -329, 804, 326, 1400, 2660, 8050, -312, 232, -324
96848, -257, 1122, 305, -1190, -7770, 7910, -316, 240, -322
96849, -349, 1072, 334, -2940, -10850, 7840, -313, 232, -316
96850, -385, 1001, 348, -4760, -18900, 7560, -315, 244, -315
96851, -333, 1016, 353, -6230, -27720, 7560, -319, 238, -315
96852, -264, 1055, 294, -7560, -26180, 9590, -309, 237, -310
96853, -343, 800, 348, -7490, -27300, 10010, -315, 244, -313
96854, -402, 847, 365, -7280, -30800, 10430, -315, 247, -325
96855, -271, 1001, 360, -6510, -32200, 11340, -324, 240, -319
96856, -213, 1008, 343, -5040, -26670, 12460, -327, 234, -333
96857, -340, 836, 336, -4130, -23450, 13580, -319, 241, -330
96858, -386, 838, 343, -5040, -32200, 13720, -315, 237, -315
96859, -327, 886, 318, -5810, -39410, 14070, -318, 247, -319
96860, -279, 949, 306, -5880, -41440, 14420, -325, 240, -325
96861, -312, 898, 330, -5950, -41020, 14140, -325, 243, -324
96862, -339, 805, 381, -6580, -52430, 13510, -325, 238, -327
96863, -188, 1022, 402, -5670, -54880, 13930, -324, 232, -327
96864, -76, 1117, 405, -3640, -44100, 15330, -334, 235, -340
96865, -76, 1097, 362, -1190, -30100, 16800, -334, 240, -330
96866, -152, 965, 400, -770, -21280, 18340, -327, 241, -331
96867, -240, 919, 325, -2170, -25830, 18900, -328, 235, -339
96868, -258, 951, 270, -3080, -26390, 19530, -325, 232, -333
96869, -192, 872, 346, -3640, -24850, 19880, -334, 232, -334
96870, -178, 804, 329, -4200, -22610, 19740, -337, 231, -339
96871, -32, 939, 386, -3570, -22400, 19040, -330, 238, -334
96872, 99, 1047, 402, -2170, -15750, 19040, -336, 235, -336
96873, 118, 1074, 405, -70, -4830, 18760, -336, 240, -333
96874, 120, 1019, 383, 1470, 3920, 18620, -330, 232, -330
96875, 32, 910, 359, 2240, 7700, 17710, -340, 237, -336
96876, 31, 996, 300, 770, 4060, 15680, -333, 240, -330
96877, 4, 912, 288, -490, 2660, 14210, -333, 240, -331
96878, 7, 796, 298, -1680, 1050, 12600, -337, 231, -322
96879, -7, 901, 328, -2870, -490, 10570, -345, 235, -331
96880, 79, 874, 389, -2520, -280, 7070, -337, 228, -325
96881, 260, 1000, 381, -840, 5320, 5810, -328, 238, -327
96882, 314, 1104, 363, 1470, 14910, 4970, -334, 241, -330
96883, 234, 1018, 357, 2870, 26250, 4200, -336, 238, -324
96884, 78, 891, 349, 3080, 28980, 2730, -339, 244, -334
96885, 47, 1153, 267, 1050, 16590, -1680, -337, 246, -325
96886, 174, 1104, 270, -350, 17360, -2870, -331, 231, -321
96887, 46, 838, 258, -1680, 19670, -4620, -331, 235, -310
96888, 0, 627, 342, -3710, 14630, -6580, -328, 237, -321
96889, 0, 536, 357, -5110, 6090, -9170, -333, 240, -312
96890, 347, 988, 347, -1260, 20930, -10780, -325, 235, -322
96891, 348, 1088, 447, 2170, 41300, -10990, -330, 237, -312
96892, 256, 1175, 438, 4480, 53620, -11760, -321, 241, -306
96893, 189, 1166, 430, 4970, 55160, -12880, -321, 232, -306
96894, 254, 1064, 266, 3780, 63070, -13160, -319, 226, -304
96895, 45, 750, 200, 2310, 70770, -12880, -312, 228, -304
96896, -60, 488, 253, -280, 69230, -13510, -319, 231, -297
96897, -129, 533, 233, -3850, 58100, -13930, -312, 228, -294
96898, 35, 703, 335, -5460, 50470, -13930, -315, 244, -291
96899, 467, 1165, 523, 2170, 82320, -10570, -315, 243, -286
96900, 510, 1159, 518, 9730, 115290, -8120, -306, 243, -276
96901, 524, 944, 473, 16100, 142100, -5320, -306, 234, -267
96902, 298, 784, 354, 19810, 157780, -3430, -301, 234, -256
96903, 174, 786, 259, 19880, 156170, -1680, -303, 237, -247
96904, -47, 1168, 145, 12040, 132020, -70, -303, 243, -229
96905, -230, 1250, 107, 5600, 111790, -1050, -291, 235, -234
96906, -326, 1110, 195, -1540, 85260, -2240, -298, 247, -222
96907, -426, 1085, 323, -6580, 58310, -3360, -303, 246, -220
96908, -93, 1548, 209, -8190, 45500, -2240, -294, 240, -213
96909, -214, 969, 320, -6510, 52500, -1120, -295, 256, -213
96910, -287, 728, 445, -6580, 43540, -420, -300, 241, -204
96911, -182, 585, 340, -6510, 26460, 560, -304, 240, -208
96912, -89, 542, 249, -4830, 23870, 2870, -297, 238, -198
96913, -321, 512, 241, 910, 42700, 5180, -294, 241, -190
96914, -412, 716, 292, 350, 32130, 4830, -301, 241, -192
96915, -401, 1075, 312, -2730, 13090, 5110, -289, 232, -193
96916, -251, 1279, 360, -5810, -2940, 5740, -297, 237, -199
96917, -182, 1329, 398, -7000, -8470, 6370, -291, 243, -199
96918, -278, 1099, 395, -4340, 5460, 8050, -294, 241, -190
96919, -310, 906, 326, -3220, 8470, 9170, -298, 247, -190
96920, -284, 854, 316, -2940, 4900, 10360, -294, 249, -195
96921, -266, 868, 263, -3500, 3430, 11900, -298, 243, -198
96922, -312, 874, 299, -6650, 3990, 15680, -298, 253, -195
96923, -373, 900, 325, -7000, -140, 17220, -297, 243, -192
96924, -288, 1008, 356, -6440, 1400, 19390, -289, 243, -193
96925, -122, 940, 307, -5110, 13370, 22680, -303, 247, -193
96926, -131, 858, 284, -3430, 27300, 25200, -301, 252, -189
96927, -449, 1061, 249, -6230, 22750, 29120, -303, 246, -196
96928, -342, 1226, 239, -9730, 6860, 30870, -303, 256, -202
96929, -425, 1216, 309, -12530, -2870, 32410, -297, 259, -195
96930, -365, 1194, 353, -13370, -11830, 33250, -307, 261, -198
96931, -317, 1157, 285, -12880, -16520, 34300, -306, 258, -193
96932, -454, 1118, 230, -11270, -23520, 34160, -300, 262, -198
96933, -420, 880, 232, -12880, -38920, 32620, -309, 267, -213
96934, -469, 709, 214, -15610, -61600, 30730, -304, 267, -202
96935, -405, 676, 211, -17710, -78960, 29050, -312, 267, -213
96936, -275, 595, 273, -15680, -85330, 25270, -318, 264, -219
96937, -118, 596, 436, -11410, -76930, 22890, -310, 273, -231
96938, 66, 733, 376, -5880, -61110, 21630, -322, 276, -232
96939, 316, 787, 353, 140, -36610, 22330, -316, 274, -235
96940, 371, 703, 321, 4830, -11270, 23030, -321, 274, -229
96941, 28, 942, 338, 2590, 7770, 23170, -315, 280, -241
96942, -7, 1240, 317, -2380, -3500, 21770, -319, 283, -234
96943, 75, 1468, 291, -6370, -10500, 20860, -318, 285, -232
96944, 96, 1362, 255, -8190, -3360, 20300, -331, 280, -229
96945, 33, 951, 360, -8470, 11130, 18970, -324, 288, -228
96946, 53, 577, 334, -6300, 8050, 18410, -322, 276, -231
96947, 171, 608, 350, -3220, 9730, 18480, -325, 277, -231
96948, 250, 721, 355, 1050, 20650, 19180, -330, 289, -217
96949, 255, 878, 317, 5180, 33460, 19670, -325, 282, -228
96950, 132, 1277, 396, 8470, 34440, 18060, -319, 289, -213
96951, 224, 1363, 275, 6650, 28490, 17780, -324, 282, -205
96952, 74, 930, 166, 3360, 25410, 16590, -328, 288, -216
96953, -211, 383, 212, -1260, 13300, 14700, -319, 291, -213
96954, -331, 468, 156, -5670, -6090, 12390, -324, 289, -210
96955, 25, 1247, 284, -8820, -25690, 10360, -328, 283, -214
96956, 40, 1361, 398, -7420, -16310, 10430, -322, 288, -213
96957, 148, 1433, 547, -4970, -5530, 9450, -331, 289, -220
96958, 223, 1496, 489, -1960, 490, 8960, -328, 280, -223
96959, 383, 1279, 353, 3220, 24080, 9870, -327, 295, -217
96960, 51, 406, 181, 3640, 28840, 9730, -324, 297, -199
96961, -178, 314, 140, 1400, 18760, 8400, -324, 288, -205
96962, -226, 456, 167, -1190, 0, 6580, -321, 286, -205
96963, -98, 784, 211, -2800, -14000, 5460, -322, 298, -205
96964, 147, 1263, 328, -420, -3710, 4690, -325, 282, -199
96965, 84, 1322, 372, 700, 3150, 3780, -322, 285, -207
96966, 1, 1326, 376, 140, 1540, 2870, -321, 297, -202
96967, 154, 1349, 355, -350, -3780, 2660, -319, 294, -210
96968, 156, 1224, 363, 140, -2100, 2870, -324, 297, -201
96969, -98, 555, 191, 2520, 17080, 4200, -328, 289, -207
96970, -234, 282, 213, 2590, 12110, 4340, -331, 297, -196
96971, -391, 296, 190, 1330, -1330, 3920, -325, 306, -204
96972, -236, 606, 208, 350, -15470, 4690, -330, 303, -196
96973, -102, 1126, 299, 1680, -16240, 6020, -334, 304, -205
96974, -149, 1640, 358, 210, -14420, 5950, -336, 303, -204
96975, -303, 1392, 363, -2800, -26110, 5110, -337, 307, -204
96976, -425, 1186, 320, -6930, -46970, 3990, -346, 316, -204
96977, -384, 1030, 347, -9660, -65660, 3150, -333, 315, -202
96978, -284, 656, 112, -8470, -64610, 2800, -336, 313, -204
96979, -303, 1173, 129, -8750, -62580, 2450, -342, 316, -204
96980, -471, 1922, 194, -14630, -75880, 910, -342, 309, -214
96981, -509, 2338, 290, -23730, -105560, -1610, -346, 313, -214
96982, -383, 2309, 374, -32410, -131040, -4270, -354, 316, -219
96983, -456, 716, 441, -39690, -145110, -8260, -351, 309, -238
96984, -613, -266, 345, -35910, -138600, -10220, -348, 313, -250
96985, 312, -499, 9, -28700, -126420, -6720, -360, 316, -249
96986, 217, -497, 278, -18690, -103180, -6510, -351, 315, -253
96987, 121, -766, 261, -3850, -53130, -2660, -355, 310, -259
96988, 310, -536, 295, 3990, -28840, -70, -360, 315, -261
96989, 653, -519, 395, 14560, 5460, 980, -370, 316, -268
96990, 750, -484, 416, 29190, 52710, 3080, -366, 321, -264
96991, 923, -398, 438, 46060, 118440, 5460, -373, 325, -244
96992, 584, 1399, -3, 77210, 235130, 14490, -366, 324, -241
96993, 590, 3997, 8, 75530, 243600, 22540, -355, 327, -229
96994, -307, 3997, 195, 50750, 182140, 19250, -358, 324, -216
96995, -601, 3997, 272, 9800, 50680, 12040, -360, 325, -201
96996, -473, 3730, 43, -28560, -66990, 1120, -358, 331, -214
96997, -500, 552, 135, -56210, -141820, -2170, -354, 333, -216
96998, 181, -6, -153, -47390, -126070, 4340, -366, 331, -235
96999, 315, -555, -23, -36120, -78400, 7490, -361, 325, -259
97000, -348, -1121, 310, -30730, -59570, 8400, -375, 334, -255
97001, -306, -1573, 513, -16310, -87010, -140, -375, 330, -268
97002, 1168, -66, 318, 2730, -35350, 3430, -373, 330, -270
97003, 1641, 155, 237, 26880, 66710, 9240, -378, 345, -262
97004, 1049, 203, 434, 47040, 181020, 15750, -376, 345, -241
97005, 39, 1727, 255, 57540, 223650, 16030, -366, 345, -231
97006, -218, 3543, 133, 27020, 104160, 9660, -366, 345, -222
97007, 145, 3127, 50, 3080, 28210, 5880, -364, 342, -220
97008, -179, 1840, 203, -15190, -10010, 3850, -370, 349, -222
97009, -289, 514, 154, -23450, -31150, 700, -370, 333, -234
97010, -400, -69, -54, -22820, -39830, 910, -360, 333, -238
97011, -373, -598, 58, -14210, -20650, 3640, -364, 334, -246
97012, 321, -998, 789, -1470, -29190, 1680, -367, 325, -247
97013, 430, 227, 566, 18970, -3920, -1190, -366, 331, -241
97014, 1383, 2411, 191, 45990, 57820, 2870, -360, 333, -231
97015, 972, 1920, 280, 68180, 208180, 13580, -354, 328, -217
97016, -382, 787, 127, 48370, 173670, 11200, -367, 334, -201
97017, -346, 860, -11, 24780, 44380, 3360, -348, 327, -210
97018, -268, 1643, 91, 4760, -44520, 1400, -358, 322, -198
97019, 487, 1926, 52, 1750, -57050, 1260, -355, 319, -207
97020, 197, -191, 49, 13230, 54180, 5670, -363, 325, -199
97021, -937, -855, 127, 9940, 49700, 840, -363, 322, -202
97022, -900, -386, 120, 2240, -19390, -1120, -354, 322, -198
97023, -31, 1095, 10, -2310, -50540, -910, -351, 319, -201
97024, 476, 2235, -58, -2380, -42140, 3360, -346, 316, -201
97025, -715, 1600, 71, -16030, -6020, 1260, -366, 327, -211
97026, -1023, 1437, 80, -34440, -76720, -4550, -355, 316, -220
97027, -868, 1786, 89, -52010, -150430, -8680, -349, 319, -220
97028, -429, 2184, -66, -61950, -181230, -10570, -358, 328, -231
97029, -833, 885, 3, -67270, -143780, -14420, -364, 319, -256
97030, -951, 95, 121, -71260, -157010, -17640, -363, 327, -252
97031, -715, 1445, -326, -77910, -186200, -17850, -370, 315, -283
97032, 223, 1609, 332, -82320, -211190, -17080, -372, 322, -283
97033, -76, 1931, 1274, -73570, -205800, -24010, -366, 312, -306
97034, 1387, 615, 367, -15400, -31220, -23590, -369, 322, -307
97035, 2166, -174, 404, 19390, 138180, -16870, -372, 315, -297
97036, -79, -795, 349, 39200, 225750, -13020, -375, 318, -276
97037, -263, -1448, 68, 40390, 216650, -15400, -349, 304, -273
97038, -1711, -1418, 134, 31290, 122220, -28700, -355, 321, -265
97039, 437, 349, -235, 34860, 64680, -32550, -355, 315, -262
97040, 1059, 473, -266, 48230, 154770, -24640, -343, 313, -241
97041, 543, -376, 10, 60830, 212450, -23660, -336, 303, -234
97042, -481, -948, 86, 60830, 211050, -26950, -328, 304, -220
97043, 1293, 3541, -180, 39200, 42000, -11410, -336, 295, -207
97044, 3398, 3997, 183, 19250, -13580, 2450, -333, 307, -196
97045, 1205, 3997, -263, -19320, -63280, 11270, -334, 301, -205
97046, -1058, 3543, 147, -58520, -124950, 1750, -348, 304, -219
97047, -3055, 1500, 159, -93660, -234920, -15330, -337, 295, -235
97048, 689, 562, -48, -82460, -320180, -13370, -343, 297, -261
97049, 2984, 676, 528, -45640, -107240, -1470, -358, 300, -285
97050, 1583, -95, 338, -8610, 40390, 13160, -348, 292, -282
97051, 604, -1637, 991, 18060, 150990, 12460, -348, 292, -271
97052, -787, -1334, 527, 27720, 126210, 8890, -348, 303, -267
97053, -618, 55, -165, 31500, 65940, 2100, -346, 292, -255
97054, 438, -30, 67, 36050, 86660, 4060, -348, 286, -246
97055, 5, -176, 4, 41160, 105280, 1890, -345, 294, -250
97056, 38, -432, 75, 41090, 99260, 770, -345, 300, -235
97057, -257, -30, 10, 35490, 42630, -8400, -339, 303, -231
97058, 128, 524, -59, 37030, 39900, -11550, -340, 300, -235
97059, 704, 3147, 105, 35350, 40670, -7140, -349, 304, -228
97060, 1274, 3997, 135, 18830, 38920, -6790, -331, 313, -223
97061, -199, 3997, 654, -280, -29260, -11690, -333, 309, -226
97062, 514, 3345, 504, -10920, -96180, -25060, -339, 310, -229
97063, 723, 1675, 172, 11060, -30730, -19880, -333, 313, -237
97064, 1342, 443, 160, 31220, 83230, -9100, -334, 301, -237
97065, 637, -719, 285, 40670, 160370, -2590, -340, 316, -216
97066, -1550, -1186, -99, 33880, 59780, -14560, -337, 301, -214
97067, -596, 89, 97, 25550, 21070, -15820, -336, 303, -196
97068, 514, 519, 34, 32060, 20090, -8330, -328, 300, -192
97069, 803, 417, -145, 42000, 76580, -2660, -330, 312, -180
97070, 280, -439, 34, 47040, 113400, -210, -330, 306, -177
97071, -472, -414, 114, 35840, 63210, -11760, -327, 304, -177
97072, 218, 459, -33, 37730, 52570, -11970, -325, 294, -165
97073, 897, 2377, -125, 40810, 67270, -1190, -318, 298, -165
97074, 1529, 2872, 116, 35420, 89110, 5810, -327, 303, -163
97075, -483, 2551, 98, 14070, 39480, 4270, -325, 289, -171
97076, -851, 3618, -146, -40880, -113400, -17780, -327, 303, -148
97077, -25, 3257, -63, -53060, -132300, -21630, -321, 300, -165
97078, -990, 1768, -156, -59570, -130620, -22330, -316, 300, -175
97079, -1013, -94, 153, -63840, -139440, -25340, -319, 295, -199
97080, -348, -396, -71, -68320, -184240, -26740, -324, 294, -216
97081, 194, 323, -147, -66430, -177030, -20860, -330, 295, -225
97082, 298, 47, -18, -61390, -148470, -20370, -322, 288, -249
97083, -125, -169, -25, -59360, -140700, -17780, -339, 285, -247
97084, 227, -1270, 353, -57680, -143570, -21280, -337, 283, -261
97085, -187, 2117, 1105, -14070, -95130, -42560, -333, 271, -279
97086, -269, 3740, 1142, 17570, 42560, -49140, -336, 280, -286
97087, -169, 2373, 711, 45430, 192290, -55300, -325, 280, -279
97088, 28, 281, 417, 53060, 225330, -50190, -331, 280, -271
97089, 293, -631, 106, 42560, 162190, -48230, -328, 291, -255
97090, 1350, 1723, 150, 19880, 40320, -37660, -319, 271, -258
97091, 905, 2258, -417, 27440, 82600, -35910, -315, 285, -252
97092, 604, 612, 188, 32690, 142940, -33950, -313, 282, -241
97093, -856, -559, 228, 30310, 154420, -39060, -310, 283, -228
97094, -751, -213, 177, 7700, 6230, -42840, -318, 277, -217
97095, 220, 2505, 61, 2030, -17220, -39830, -298, 277, -219
97096, -70, 2197, 124, 1960, 7280, -39760, -303, 273, -211
97097, -438, 1100, 234, -3500, 22610, -40600, -291, 267, -219
97098, -1110, 358, 331, -15050, -2730, -45080, -303, 264, -219
97099, -401, 1231, 168, -31290, -70910, -46130, -307, 264, -228
97100, -62, 1189, 61, -28000, -52640, -42980, -300, 259, -228
97101, -382, 306, 231, -23170, -17640, -40110, -300, 252, -240
97102, -622, -102, 173, -23380, -8610, -40670, -294, 256, -237
97103, -875, 86, 222, -29260, -35770, -43540, -289, 244, -243
97104, 253, 1557, 950, -25200, -80360, -51170, -303, 238, -253
97105, 555, 2367, 670, -9380, -33180, -50260, -297, 232, -258
97106, 609, 1863, 519, 7140, 47250, -46480, -289, 235, -253
97107, -107, 290, 410, 18550, 108850, -42490, -292, 234, -256
97108, -274, -749, 553, 15470, 78190, -43820, -271, 243, -243
97109, -70, 1232, -12, 12180, 56420, -39760, -276, 225, -235
97110, 219, 1841, 27, 12390, 61810, -35490, -280, 223, -234
97111, -277, 1508, 115, 10290, 70070, -32200, -280, 219, -225
97112, -708, 899, 206, 2170, 54040, -32970, -280, 223, -232
97113, -608, 1428, 345, -18690, -31570, -37590, -271, 220, -237
97114, -289, 1776, 197, -18410, -36470, -36750, -277, 217, -241
97115, -156, 1011, 392, -11690, -2240, -33250, -274, 222, -244
97116, -201, 171, 479, -2520, 31220, -30660, -277, 214, -241
97117, -202, -275, 471, 5250, 49630, -27230, -271, 217, -250
97118, -66, 811, 170, 17640, 67620, -20090, -265, 211, -234
97119, -85, 1181, 131, 19810, 80640, -16660, -277, 211, -222
97120, -416, 1137, 277, 15610, 80710, -14910, -271, 225, -225
97121, -623, 1449, 160, 6440, 48790, -15540, -268, 216, -222
97122, -624, 1832, 108, -12950, -6930, -15890, -279, 226, -223
97123, -517, 1460, 241, -17290, -9800, -15190, -271, 214, -220
97124, -547, 674, 280, -18550, -8890, -15820, -268, 220, -216
97125, -356, 146, 364, -18200, -7560, -15120, -270, 211, -223
97126, -126, 318, 262, -13510, -3220, -14000, -268, 208, -216
97127, 91, 497, 333, 2170, 47670, -7700, -268, 204, -210
97128, 25, 618, 362, 8890, 74130, -5530, -270, 207, -208
97129, -38, 1097, 268, 12460, 85610, -3920, -256, 204, -204
97130, -206, 1544, 169, 10500, 85750, -2870, -268, 207, -207
97131, -373, 1663, 166, 4760, 72590, -2660, -264, 211, -201
97132, -546, 1361, 151, -12390, 22330, -3710, -273, 205, -193
97133, -498, 1171, 127, -19320, 980, -4130, -264, 205, -198
97134, -538, 773, 171, -22470, -9870, -4830, -267, 199, -193
97135, -458, 514, 188, -22050, -18410, -5530, -259, 204, -199
97136, -241, 408, 314, -13230, -15330, -7840, -265, 211, -201
97137, -64, 680, 371, -6230, -7070, -8400, -258, 205, -205
97138, -77, 1065, 328, -140, 11830, -8820, -259, 211, -204
97139, -225, 1191, 349, 3850, 23170, -10010, -265, 201, -204
97140, -237, 1347, 323, 4410, 28560, -11830, -265, 211, -204
97141, -461, 1163, 121, -3640, 3220, -13230, -262, 205, -216
97142, -635, 639, 197, -8960, -11480, -14210, -264, 210, -204
97143, -713, 400, 141, -12460, -31220, -14910, -262, 204, -219
97144, -487, 331, 190, -13790, -36540, -15260, -262, 207, -217
97145, -125, 467, 112, -12110, -32340, -15260, -265, 210, -216
97146, -116, 782, 436, -5810, -6020, -17640, -262, 207, -225
97147, -282, 1359, 345, -2870, 5530, -19530, -261, 210, -229
97148, 52, 1580, 496, 980, 18830, -20790, -259, 202, -220
97149, -264, 1482, 250, 3220, 46200, -20160, -264, 213, -222
97150, -155, 301, 113, 2380, 71400, -16940, -255, 202, -207
97151, 5, 256, 185, 630, 73150, -14840, -250, 207, -202
97152, -195, 395, 95, -350, 73290, -12670, -259, 193, -201
97153, 143, 454, 111, 770, 77140, -10080, -258, 193, -192
97154, 86, 542, 111, 2590, 84840, -8820, -261, 202, -192
97155, -253, 1823, 354, 4690, 71120, -9660, -255, 190, -183
97156, -376, 2186, 323, 4130, 56700, -11270, -250, 178, -187
97157, -496, 2022, 253, 2450, 42770, -12950, -250, 187, -184
97158, -661, 1430, 212, -1890, 24850, -14000, -258, 190, -180
97159, -800, 899, 117, -7700, -280, -15260, -256, 189, -177
97160, -614, 509, 52, -16100, -48090, -16170, -250, 184, -189
97161, -430, 612, 103, -16870, -54460, -15750, -256, 180, -192
97162, -597, 517, 29, -16800, -54530, -15820, -250, 192, -202
97163, -287, 279, 162, -17500, -58520, -17640, -258, 178, -202
97164, -467, 971, 404, -14560, -84280, -29680, -247, 175, -220
97165, -688, 1496, 238, -7070, -70630, -37170, -250, 181, -214
97166, -256, 1345, 357, -350, -39480, -39270, -261, 177, -234
97167, -195, 752, 254, 5880, -4690, -41370, -247, 177, -232
97168, -118, 255, 205, 7280, 2310, -41300, -250, 180, -228
97169, -262, 640, 89, 770, -5040, -42070, -252, 181, -234
97170, -330, 1168, 41, -1960, 3010, -42490, -250, 181, -238
97171, -397, 1269, 24, -4130, 14490, -43190, -247, 174, -229
97172, -430, 753, 145, -6650, 21490, -45780, -253, 172, -232
97173, -442, 673, 265, -9590, 10500, -48370, -240, 171, -237
97174, 97, 1027, 234, -3710, 16520, -50750, -246, 168, -232
97175, 628, 934, -8, 4410, 48230, -43960, -240, 165, -225
97176, 873, 636, 80, 10710, 95690, -35980, -234, 163, -223
97177, 56, 291, 23, 11270, 125300, -28420, -240, 157, -208
97178, -247, 407, 27, 3290, 106960, -24990, -235, 147, -196
97179, 133, 761, 10, 3780, 93940, -22120, -237, 139, -205
97180, 58, 832, -108, 6440, 100100, -15050, -225, 139, -180
97181, 252, 402, 84, 8890, 111020, -6930, -223, 141, -187
97182, -141, 136, 220, 10220, 115850, -910, -231, 127, -175
97183, -95, 749, -13, 16660, 92120, 9450, -229, 142, -166
97184, 158, 673, 14, 21280, 91280, 17220, -229, 139, -157
97185, 292, 682, -19, 24290, 105350, 22890, -237, 139, -150
97186, -976, 3601, -217, 22820, 128170, 14350, -223, 139, -133
97187, -3522, 3997, -950, 12810, 137760, -31850, -228, 133, -126
97188, -2207, 2395, -18, -27790, 47040, -53130, -235, 135, -126
97189, -2188, -12, -8, -50190, -101710, -60830, -235, 142, -121
97190, -1120, 340, -187, -58450, -205800, -50540, -225, 133, -133
97191, 633, 1015, -355, -53550, -197960, -43890, -231, 130, -153
97192, 1264, -240, 142, -49280, -137760, -29260, -223, 127, -175
97193, -1412, -410, -193, -54740, -146510, -33530, -226, 127, -186
97194, 113, -220, 59, -62370, -203700, -36050, -219, 135, -208
97195, -197, 467, -108, -63770, -207620, -42490, -220, 129, -222
97196, 1153, 747, -273, -60340, -184030, -32480, -228, 129, -238
97197, 36, 18, -18, -54110, -48090, -20930, -225, 130, -259
97198, -97, -202, 146, -58100, -31640, -21630, -234, 121, -255
97199, -626, 162, -124, -61950, -55370, -17990, -231, 124, -259
97200, 628, 268, 463, -58520, -16450, -28910, -228, 124, -265
97201, -2437, 1170, 1133, -18620, 173670, -70210, -225, 114, -258
97202, -1287, 1111, 392, 13790, 256060, -82180, -219, 106, -252
97203, 2192, 212, 97, 36400, 311290, -80570, -214, 99, -238
97204, -532, -75, -369, 46270, 369460, -76720, -208, 91, -201
97205, 582, -575, 44, 43820, 360220, -69510, -210, 90, -166
97206, 682, 546, -353, 41370, 328160, -68390, -211, 79, -153
97207, 701, 845, -480, 49910, 374850, -68600, -213, 75, -123
97208, 732, 627, -493, 55090, 418950, -56980, -216, 72, -85
97209, 939, 259, -493, 59360, 480550, -55020, -213, 64, -45
97210, -386, 317, -827, 56140, 491610, -49910, -217, 58, -6
97211, -617, 1299, -1011, 56140, 463680, -46970, -226, 49, 24
97212, -296, 3256, -1674, 61530, 449820, -52990, -232, 45, 90
97213, -1659, 3694, -2767, 65590, 438410, -69580, -264, 34, 129
97214, -1176, 2202, -1911, 68390, 365820, -84280, -267, 28, 141
97215, -1458, 1538, -1813, 74270, 242620, -96810, -277, 18, 154
97216, 462, 86, -68, 81410, 242620, -84070, -289, 18, 175
97217, -405, -38, -126, 84770, 241010, -73430, -297, 9, 180
97218, 484, -300, 40, 84210, 244510, -69230, -304, -3, 199
97219, -538, -233, -585, 83580, 216300, -70350, -310, -1, 208
97220, -325, 173, -220, 81760, 178780, -73080, -331, -12, 220
97221, 760, 233, 73, 85960, 176820, -68320, -330, -18, 228
97222, -70, -30, -236, 90510, 192640, -65240, -336, -25, 234
97223, 347, -221, -269, 90790, 188370, -63630, -349, -42, 237
97224, 1049, 472, -1919, 100730, 216860, -65940, -354, -40, 247
97225, 2591, 726, -3997, 178920, 451430, -59990, -382, -60, 252
97226, 3445, -74, -3997, 231490, 651840, -43960, -409, -58, 279
97227, 828, -817, -2840, 275660, 816550, -23590, -444, -88, 286
97228, -3997, -546, -1048, 82110, 795550, 310870, -451, -94, 292
97229, -3997, 2921, -1587, 176330, -660100, -180740, -406, -97, 259
97230, 2897, -1341, -405, 118090, -288820, -411460, -406, -120, 250
97231, -199, -1153, 710, 147420, -265510, -86940, -382, -123, 232
97232, -1023, -947, -1536, 137200, -485030, -125790, -369, -144, 217
97233, -117, -248, -81, 109130, -305900, -144410, -334, -150, 186
97234, 2179, 1218, -784, 123410, -363510, -147070, -318, -159, 159
97235, -1222, -114, -1052, 117950, -279300, -133350, -310, -177, 139
97236, 3053, -731, 565, 131880, -193060, -244580, -322, -192, 133
97237, 2966, 824, -3997, 26530, 962710, -874440, -403, -208, 165
97238, 3794, -3997, 1546, 6020, 828240, -132440, -421, -199, 204
97239, -3997, 3415, 412, 131600, 69650, 905450, -397, -180, 211
97240, -2102, 2681, -3997, 18550, 419930, -14630, -417, -195, 214
97241, 1515, -975, -3997, 113750, 481180, -47600, -447, -204, 210
97242, -3997, -354, -3997, 75250, 575750, 112700, -453, -201, 202
97243, -3997, -1829, 839, 99750, -135870, -139930, -418, -216, 195
97244, 1464, 3997, 1031, 69230, 307790, -505400, -453, -222, 196
97245, 1912, 2351, -3997, -79730, -192290, 2730, -442, -220, 205
97246, 1812, 1614, -1792, -72380, 174160, -41300, -457, -207, 213
97247, 1027, -610, 850, -25690, -81410, 17360, -459, -213, 210
97248, -2827, -2533, -2689, -43330, 27580, 15050, -456, -211, 222
97249, 1658, 339, 560, -16590, 55230, -29470, -454, -207, 217
97250, 1002, 1101, -1721, 10080, -217350, -3710, -448, -208, 217
97251, -514, 760, -1714, -12600, 115570, -10430, -456, -205, 213
97252, 3349, -33, 3766, 14000, -52010, 24990, -454, -210, 211
97253, -1451, -1930, -614, -9870, 66430, 10920, -454, -208, 214
97254, 113, -62, -1648, -15400, 83510, 1540, -462, -202, 211
97255, 2652, 616, -59, 28210, -82110, -11130, -448, -211, 205
97256, -1491, 1009, -2270, 13510, 10850, 16660, -451, -210, 214
97257, 356, -1054, -1641, 31990, -46900, 11200, -453, -205, 208
97258, -716, -1007, -993, 24640, 16800, 3570, -447, -211, 205
97259, 521, 126, -754, 14000, -3710, -2800, -457, -216, 210
97260, 192, 908, -1108, 14000, 7630, 8960, -448, -211, 204
97261, -170, 274, -1090, 6860, 2380, 16380, -453, -208, 205
97262, -280, -80, -1062, 2870, -9590, 2590, -453, -213, 199
97263, -634, 495, -1388, -2030, -10920, -2030, -450, -207, 210
97264, 76, 345, -465, -7560, 840, 1610, -444, -208, 211
97265, -281, 313, -1263, -4550, -6860, 1750, -451, -213, 207
97266, -157, -62, -741, -2240, -630, -70, -445, -201, 210
97267, -85, 139, -589, 140, 5040, -2030, -451, -211, 205
97268, -222, 198, -948, -490, -840, 980, -448, -211, 216
97269, -218, 89, -1086, 2310, 3430, 910, -450, -208, 190
97270, -310, 48, -1039, 3360, -70, -210, -450, -216, 208
97271, -256, 68, -850, 0, 140, -560, -450, -213, 207
97272, -265, 26, -1114, -1470, 2450, -630, -444, -207, 211
97273, -226, -81, -996, -980, -2170, -1540, -447, -216, 199
97274, -320, -36, -1012, -770, 840, -350, -453, -211, 208
97275, -149, -44, -893, 70, -1400, -420, -450, -214, 208
97276, -237, 20, -925, 280, 1330, 350, -453, -220, 213
97277, -272, 21, -957, 0, 140, 280, -451, -216, 207
97278, -298, 49, -1049, 70, 1750, 210, -447, -201, 193
97279, -183, 67, -1001, 420, -840, 0, -448, -208, 208
97280, -230, 70, -940, -70, 420, 210, -445, -207, 202
97281, -242, 67, -957, -210, 70, -70, -448, -205, 207
97282, -267, 42, -976, 0, 70, -210, -448, -213, 210
97283, -254, 32, -969, 70, -210, -350, -456, -201, 207
97284, -225, 20, -935, 140, 70, -210, -456, -207, 210
97285, -267, 6, -967, -70, 770, 0, -457, -214, 207
97286, -227, 21, -991, -70, 280, 0, -454, -214, 210
97287, -269, 29, -976, 70, -210, 0, -448, -208, 204
97288, -210, 55, -937, 70, 140, 70, -456, -222, 192
97289, -224, 54, -937, 0, 70, 0, -453, -208, 204
97290, -242, 39, -978, 70, 210, -140, -450, -211, 207
97291, -251, 45, -991, 70, 0, -140, -450, -211, 204
97292, -216, 28, -945, 0, 0, -140, -451, -207, 208
97293, -227, 40, -955, 0, -210, -140, -450, -216, 208
97294, -238, 21, -942, -70, 560, 0, -447, -214, 208
97295, -259, 26, -968, 70, 490, -70, -454, -210, 205
97296, -213, 45, -960, 70, 0, -70, -444, -216, 211
97297, -232, 45, -951, 0, 140, 0, -456, -210, 204
97298, -214, 52, -961, 0, 280, -70, -459, -208, 213
97299, -247, 40, -973, 0, 350, -70, -448, -208, 210
97300, -227, 35, -954, 0, -140, -140, -445, -214, 205
97301, -233, 36, -948, 70, 210, -70, -451, -219, 210
97302, -219, 33, -954, 0, 280, 0, -445, -205, 207
97303, -249, 32, -972, 0, 210, -70, -453, -214, 214
97304, -238, 37, -962, 70, -140, -70, -448, -210, 207
97305, -223, 45, -951, 0, 280, -70, -451, -217, 205
97306, -224, 42, -951, -70, 70, -70, -451, -207, 211
97307, -242, 44, -968, 0, 420, -70, -450, -202, 207
97308, -242, 35, -971, 0, 0, -140, -451, -216, 214
97309, -228, 33, -951, 0, 280, -70, -444, -210, 205
97310, -222, 39, -956, 0, 0, -70, -445, -213, 205
97311, -243, 32, -960, -70, 350, 0, -453, -211, 202
97312, -234, 40, -972, 0, 140, -70, -445, -214, 199
97313, -220, 43, -959, 70, 140, 0, -442, -210, 213
97314, -233, 38, -952, 0, 0, -70, -451, -214, 207
97315, -232, 43, -965, 0, 350, -70, -451, -207, 205
97316, -241, 35, -966, -70, 70, -140, -451, -214, 204
97317, -241, 39, -968, 0, 210, -70, -456, -214, 213
97318, -231, 40, -957, 0, 140, -70, -459, -213, 207
97319, -231, 36, -959, 0, 350, -70, -450, -213, 210
97320, -240, 39, -970, -70, 70, -70, -462, -217, 210
97321, -240, 37, -966, 0, 210, -70, -456, -223, 214
97322, -228, 40, -961, 70, 280, -70, -456, -207, 210
97323, -228, 40, -960, 0, 210, -140, -445, -213, 210
97324, -240, 36, -966, -70, 140, -70, -445, -219, 207
97325, -237, 37, -965, 70, 210, -70, -447, -208, 207
97326, -232, 37, -959, -70, 0, -70, -448, -216, 204
97327, -228, 40, -960, 0, 70, -70, -448, -214, 201
97328, -243, 37, -965, -70, 280, -70, -454, -214, 213
97329, -232, 39, -965, 0, 140, 0, -448, -219, 201
97330, -237, 37, -960, 0, 70, -70, -456, -204, 208
97331, -228, 40, -958, 70, 210, -70, -450, -213, 213
97332, -237, 39, -966, 0, 280, -70, -451, -205, 208
97333, -235, 35, -963, 70, 140, -70, -451, -217, 204
97334, -236, 39, -963, 0, 140, -70, -441, -214, 204
97335, -230, 37, -957, 0, 140, -70, -454, -217, 208
97336, -232, 40, -962, 0, 280, -70, -448, -213, 204
97337, -233, 39, -965, 0, 70, -70, -447, -217, 210
97338, -238, 37, -961, 0, 140, -140, -454, -211, 213
97339, -227, 41, -960, 0, 140, -70, -450, -210, 211
97340, -236, 37, -959, 0, 210, -70, -456, -210, 208
97341, -238, 36, -963, 0, 140, -70, -456, -214, 210
97342, -234, 39, -962, 0, 210, -70, -454, -199, 208
97343, -231, 38, -958, 70, 140, -70, -444, -216, 223
97344, -233, 39, -961, 0, 140, -70, -448, -216, 211
97345, -233, 37, -962, 0, 210, -70, -448, -208, 213
97346, -233, 38, -961, 0, 210, -70, -453, -217, 213
97347, -231, 39, -961, 70, 140, -70, -445, -205, 213
97348, -235, 38, -961, 0, 210, -70, -441, -214, 211
97349, -233, 38, -963, 0, 210, -70, -447, -217, 204
97350, -237, 37, -963, 0, 140, -140, -456, -208, 210
97351, -233, 39, -960, -70, 140, -70, -456, -216, 204
97352, -233, 38, -961, 0, 210, -70, -442, -201, 208
97353, -233, 39, -962, 0, 140, -70, -451, -213, 207
97354, -237, 37, -962, 0, 210, -70, -450, -211, 210
97355, -235, 38, -960, 0, 140, -70, -456, -213, 208
97356, -232, 40, -961, 0, 140, -140, -450, -201, 207
97357, -235, 37, -961, 0, 140, -70, -454, -208, 201
97358, -234, 39, -962, 0, 140, -70, -453, -210, 213
97359, -234, 37, -961, 70, 70, -140, -448, -213, 195
97360, -233, 37, -961, 0, 210, -70, -456, -205, 205
97361, -235, 39, -963, 0, 210, -70, -450, -210, 205
97362, -234, 37, -961, 0, 140, -70, -445, -211, 217
97363, -233, 39, -961, -70, 70, -70, -442, -214, 207
97364, -235, 38, -961, 0, 140, -70, -454, -213, 204
97365, -237, 38, -961, 0, 210, -70, -457, -216, 201
97366, -233, 39, -962, 0, 280, -70, -447, -210, 213
97367, -235, 38, -961, 0, 210, -70, -451, -214, 211
97368, -233, 39, -961, 0, 140, -70, -454, -217, 216
97369, -235, 38, -963, 0, 140, -140, -445, -211, 204
97370, -233, 38, -962, 0, 140, -70, -447, -217, 219
97371, -234, 38, -961, 0, 140, -70, -451, -211, 204
97372, -233, 38, -960, 70, 210, -70, -451, -204, 214
97373, -234, 39, -962, 0, 140, -70, -447, -208, 207
97374, -234, 38, -961, 0, 140, -70, -445, -213, 195
97375, -234, 37, -961, -70, 280, 0, -445, -201, 201
97376, -233, 38, -961, 0, 210, -70, -444, -216, 210
97377, -234, 38, -962, 0, 210, -70, -454, -211, 213
97378, -234, 38, -962, 70, 210, -70, -453, -213, 207
97379, -234, 38, -960, -70, 140, -70, -447, -214, 214
97380, -233, 38, -961, 0, 70, -70, -465, -208, 207
97381, -235, 38, -962, 0, 210, -70, -450, -205, 208
97382, -233, 38, -962, 0, 210, -70, -451, -219, 207
97383, -233, 38, -962, 70, 210, -70, -454, -214, 208
97384, -233, 38, -961, 0, 140, -70, -448, -217, 196
97385, -234, 39, -962, 0, 210, -70, -442, -211, 214
97386, -234, 39, -961, 0, 140, 0, -450, -211, 204
97387, -234, 39, -962, 0, 210, -70, -454, -210, 204
97388, -234, 38, -962, 0, 140, -70, -445, -205, 216
97389, -234, 38, -962, 0, 210, -70, -438, -213, 216
97390, -233, 38, -962, 70, 140, -140, -454, -216, 208
97391, -235, 38, -960, 0, 140, -70, -457, -204, 201
97392, -234, 38, -961, 0, 140, -70, -451, -213, 214
97393, -233, 38, -962, 0, 140, -70, -450, -214, 199
97394, -234, 38, -962, 70, 140, -140, -447, -216, 214
97395, -234, 38, -962, 0, 140, -70, -445, -210, 208
97396, -233, 38, -961, 70, 140, -70, -441, -214, 207
97397, -234, 38, -961, 0, 210, 0, -454, -217, 210
97398, -234, 38, -961, 0, 140, -140, -450, -207, 205
97399, -234, 38, -961, 0, 210, -70, -456, -216, 213
97400, -234, 38, -961, 70, 210, -70, -456, -217, 205
97401, -234, 38, -960, 0, 210, -140, -454, -210, 201
97402, -235, 38, -962, 0, 210, -70, -460, -210, 202
97403, -234, 38, -960, 70, 140, -70, -444, -207, 204
97404, -235, 38, -960, 0, 140, -140, -451, -213, 208
97405, -235, 38, -961, 0, 140, -70, -444, -211, 202
97406, -234, 39, -961, 0, 140, -70, -450, -213, 207
97407, -233, 38, -961, 0, 210, -70, -453, -216, 199
97408, -235, 38, -961, 0, 140, -70, -450, -216, 204
97409, -234, 38, -962, 0, 210, -70, -457, -214, 210
97410, -234, 38, -962, 0, 140, -70, -451, -213, 211
97411, -233, 38, -961, 0, 210, -70, -453, -208, 207
97412, -234, 38, -961, 70, 210, -70, -447, -213, 216
97413, -233, 38, -960, 0, 140, -70, -454, -208, 201
97414, -234, 38, -961, -70, 210, -70, -456, -216, 210
97415, -234, 38, -961, 70, 210, -70, -457, -210, 210
97416, -235, 38, -961, 70, 210, -70, -451, -210, 199
97417, -233, 38, -962, 0, 140, -70, -451, -208, 202
97418, -234, 38, -961, 0, 140, -70, -453, -214, 202
97419, -234, 38, -960, 0, 70, -70, -448, -214, 204
97420, -234, 38, -961, 0, 210, -70, -450, -222, 202
97421, -234, 38, -961, 0, 210, -70, -447, -210, 211
97422, -234, 37, -961, 0, 210, -70, -451, -217, 192
97423, -233, 38, -962, 0, 140, -70, -450, -211, 198
97424, -234, 39, -961, 0, 140, -140, -450, -207, 196
97425, -234, 39, -962, 0, 210, -70, -448, -210, 204
97426, -235, 39, -960, 0, 280, -70, -447, -208, 204
97427, -234, 38, -961, 0, 140, -140, -447, -217, 199
97428, -234, 38, -960, 0, 140, -70, -442, -216, 208
97429, -234, 37, -961, 0, 140, -70, -444, -214, 208
97430, -234, 38, -961, 0, 210, -70, -453, -207, 213
97431, -234, 39, -960, 0, 210, -70, -454, -207, 208
97432, -234, 39, -961, 0, 210, -140, -447, -210, 211
97433, -234, 39, -961, 70, 140, -70, -444, -208, 207
97434, -234, 39, -961, 0, 210, -70, -456, -217, 205
97435, -235, 38, -961, 0, 210, -70, -450, -214, 210
97436, -234, 38, -961, 70, 210, -70, -451, -210, 217
97437, -233, 38, -962, 70, 210, -70, -451, -208, 207
97438, -234, 38, -961, 0, 140, -70, -460, -213, 214
97439, -234, 38, -962, 0, 210, -70, -451, -217, 205
97440, -233, 38, -960, -70, 210, -70, -454, -211, 214
97441, -233, 39, -962, 0, 210, -70, -451, -208, 207
97442, -234, 37, -962, 0, 210, 0, -451, -214, 214
97443, -234, 38, -961, 0, 210, -70, -447, -210, 202
97444, -234, 38, -961, 0, 140, -70, -457, -214, 201
97445, -234, 38, -961, -70, 140, -70, -453, -219, 205
97446, -233, 38, -961, -70, 140, -70, -456, -211, 210
97447, -234, 38, -961, 0, 140, -70, -442, -219, 201
97448, -234, 38, -962, 0, 210, -70, -451, -211, 214
97449, -233, 39, -962, 0, 140, -70, -454, -207, 195
97450, -234, 38, -961, 70, 210, -140, -450, -211, 207
97451, -234, 38, -961, 0, 210, -70, -450, -220, 199
97452, -234, 38, -962, 70, 210, -70, -450, -211, 207
97453, -235, 39, -962, 0, 210, -70, -456, -216, 201
97454, -233, 39, -961, -70, 140, -70, -450, -211, 210
97455, -234, 39, -961, 70, 210, -70, -457, -214, 211
97456, -234, 38, -962, 70, 210, -70, -456, -214, 210
97457, -233, 38, -961, 0, 140, -70, -456, -211, 205
97458, -234, 38, -962, 0, 210, -70, -444, -214, 210
97459, -233, 39, -961, -70, 140, -70, -450, -213, 204
97460, -233, 38, -962, 0, 210, -70, -451, -219, 207
97461, -234, 38, -962, 0, 140, -70, -447, -211, 201
97462, -234, 39, -961, 0, 140, -70, -459, -211, 205
97463, -233, 38, -961, -70, 210, -70, -442, -220, 202
97464, -234, 39, -961, 0, 210, -70, -454, -216, 208
97465, -234, 38, -961, 70, 210, -70, -453, -208, 205
97466, -234, 38, -961, 0, 210, -70, -448, -211, 208
97467, -233, 38, -961, -70, 210, -70, -456, -216, 210
97468, -234, 38, -961, 70, 140, -70, -456, -210, 207
97469, -234, 39, -962, 70, 140, -70, -445, -216, 207
97470, -233, 38, -961, 70, 210, -70, -448, -211, 201
97471, -234, 38, -961, 0, 140, -70, -451, -210, 211
97472, -233, 38, -961, 0, 140, -70, -451, -211, 211
97473, -234, 38, -962, -70, 210, -70, -454, -205, 211
97474, -234, 39, -962, 70, 210, -70, -444, -219, 211
97475, -235, 38, -961, 0, 140, -70, -453, -220, 211
97476, -234, 38, -962, 0, 140, -70, -451, -213, 208
97477, -234, 38, -962, 0, 210, -70, -453, -217, 213
97478, -234, 39, -961, 0, 210, -70, -454, -211, 208
97479, -234, 38, -961, 0, 140, -70, -442, -216, 198
97480, -234, 39, -962, 0, 140, -70, -448, -219, 208
97481, -234, 38, -962, 0, 140, -70, -442, -208, 214
97482, -233, 39, -961, -70, 210, -70, -450, -210, 211
97483, -233, 38, -961, 0, 210, -70, -450, -211, 202
97484, -234, 38, -961, 0, 140, -140, -451, -207, 213
97485, -234, 38, -961, 0, 140, -70, -445, -207, 205
97486, -234, 37, -961, 70, 140, -70, -447, -222, 213
97487, -233, 37, -961, -70, 140, -70, -456, -207, 208
97488, -233, 38, -961, 0, 210, -70, -450, -204, 216
97489, -234, 38, -960, 0, 140, -70, -454, -210, 199
97490, -234, 39, -961, 70, 210, -140, -450, -222, 214
97491, -233, 39, -961, 0, 210, -70, -447, -208, 211
97492, -234, 38, -961, 70, 140, -70, -441, -214, 207
97493, -234, 38, -960, 70, 140, -70, -450, -208, 195
97494, -233, 39, -961, -70, 140, -70, -445, -225, 211
97495, -234, 38, -962, 70, 210, -70, -454, -207, 211
97496, -234, 37, -961, 0, 140, -70, -448, -217, 214
97497, -234, 38, -961, 0, 140, -70, -460, -210, 202
97498, -234, 38, -962, -70, 140, -70, -447, -219, 208
97499, -234, 38, -962, 0, 140, -140, -441, -216, 199
97500, -234, 39, -962, -70, 70, -70, -445, -213, 202
97501, -234, 38, -962, 0, 140, -70, -451, -207, 208
97502, -234, 38, -961, 0, 70, -70, -453, -207, 207
97503, -234, 39, -961, 70, 140, -70, -459, -210, 210
97504, -233, 38, -961, 0, 140, -70, -444, -217, 208
97505, -234, 38, -961, 0, 140, -70, -453, -210, 195
97506, -233, 38, -962, 0, 70, -70, -456, -217, 211
97507, -234, 38, -962, 0, 210, -70, -456, -211, 201
97508, -234, 38, -961, 0, 210, -140, -442, -216, 204
97509, -234, 38, -961, 0, 210, -70, -442, -211, 204
97510, -233, 39, -961, 0, 140, -70, -459, -213, 204
97511, -234, 38, -961, -70, 210, -70, -454, -202, 210
97512, -234, 38, -961, 70, 210, -70, -444, -219, 210
97513, -234, 38, -962, 70, 140, 0, -453, -217, 210
97514, -234, 38, -961, 0, 140, -70, -456, -213, 205
97515, -233, 38, -961, -70, 140, -70, -448, -201, 198
97516, -234, 38, -961, 0, 210, -70, -450, -219, 210
97517, -234, 38, -962, 0, 140, -70, -454, -214, 214
97518, -234, 38, -961, 0, 140, -140, -441, -220, 201
97519, -234, 38, -961, 70, 210, -140, -441, -220, 202
97520, -233, 37, -962, 0, 210, -70, -453, -216, 205
97521, -234, 38, -961, 0, 140, -70, -445, -210, 211
97522, -234, 38, -960, 0, 140, -70, -451, -211, 208
97523, -235, 39, -961, 0, 140, -70, -451, -213, 207
97524, -233, 39, -961, -70, 210, -70, -448, -219, 210
97525, -233, 38, -962, 0, 140, -70, -442, -210, 210
97526, -234, 38, -961, 0, 210, -70, -448, -208, 217
97527, -234, 38, -961, 0, 140, -70, -454, -208, 201
97528, -233, 37, -961, 0, 140, -70, -450, -213, 201
97529, -233, 38, -961, 0, 140, -70, -447, -211, 208
97530, -233, 38, -961, 70, 210, -70, -457, -210, 207
97531, -234, 38, -961, 0, 210, -70, -448, -214, 196
97532, -234, 38, -962, 70, 210, -70, -450, -216, 213
97533, -233, 39, -961, 0, 140, -70, -447, -220, 211
97534, -233, 38, -961, 0, 140, -140, -453, -202, 210
97535, -233, 38, -960, 0, 140, -70, -451, -207, 208
97536, -234, 37, -961, 70, 140, -70, -441, -204, 202
97537, -233, 39, -961, 70, 210, -70, -448, -211, 207
97538, -234, 38, -962, 0, 140, -140, -444, -217, 210
97539, -233, 38, -962, 0, 210, -70, -445, -213, 201
97540, -234, 38, -961, 0, 140, -70, -445, -205, 201
97541, -234, 38, -961, 0, 210, -140, -450, -210, 201
97542, -233, 38, -960, 0, 140, -70, -453, -202, 217
97543, -234, 38, -960, 0, 140, -70, -448, -217, 208
97544, -234, 37, -961, 0, 210, -70, -447, -210, 208
97545, -234, 38, -961, 0, 210, -70, -451, -208, 210
97546, -234, 38, -961, 0, 140, -70, -441, -205, 201
97547, -233, 38, -961, -70, 140, -70, -448, -217, 201
97548, -234, 38, -961, 0, 210, -70, -454, -208, 213
97549, -233, 38, -962, 0, 140, -70, -453, -214, 198
97550, -234, 38, -961, 0, 210, -70, -457, -211, 211
97551, -234, 38, -961, 0, 140, -70, -457, -208, 211
97552, -234, 38, -961, 0, 210, -70, -447, -213, 208
97553, -233, 38, -962, -70, 210, -70, -448, -211, 204
97554, -234, 38, -962, 0, 210, -70, -450, -211, 210
97555, -234, 38, -962, 70, 210, -70, -445, -202, 205
97556, -234, 38, -961, 0, 210, -70, -450, -216, 216
97557, -234, 38, -961, 70, 140, -70, -442, -210, 211
97558, -235, 38, -961, 0, 140, -70, -453, -210, 216
97559, -233, 38, -961, 0, 210, -70, -466, -213, 208
97560, -234, 38, -961, 0, 70, -70, -444, -208, 205
97561, -234, 39, -961, 0, 140, 0, -454, -208, 205
97562, -234, 38, -962, 0, 140, -70, -451, -207, 205
97563, -234, 38, -961, 0, 210, -140, -453, -213, 208
97564, -234, 38, -960, 0, 70, -70, -453, -216, 214
97565, -234, 38, -962, 70, 140, -70, -453, -211, 205
97566, -235, 38, -962, -70, 210, -140, -456, -210, 204
97567, -234, 38, -961, 0, 210, -70, -450, -214, 208
97568, -234, 38, -961, 0, 210, -70, -448, -207, 204
97569, -234, 38, -961, 0, 140, -70, -441, -211, 208
97570, -234, 39, -961, 0, 140, -140, -448, -207, 214
97571, -234, 38, -960, 0, 140, -70, -454, -210, 217
97572, -234, 37, -961, 0, 210, -70, -448, -208, 217
97573, -234, 38, -962, 70, 280, -70, -447, -217, 213
97574, -234, 38, -961, 0, 140, -70, -450, -208, 213
97575, -234, 38, -961, 0, 210, -70, -450, -211, 207
97576, -234, 38, -961, 0, 140, -70, -453, -204, 210
97577, -233, 38, -961, 0, 140, -140, -448, -214, 202
97578, -234, 38, -961, 0, 140, -70, -453, -210, 207
97579, -234, 38, -961, -70, 140, -70, -454, -217, 208
97580, -234, 38, -961, 70, 210, -70, -454, -211, 205
97581, -234, 38, -962, 70, 210, -70, -456, -216, 204
97582, -234, 38, -962, 0, 140, -70, -462, -217, 208
97583, -233, 38, -962, 70, 70, -70, -447, -213, 214
97584, -234, 38, -962, 70, 210, -70, -451, -216, 211
97585, -234, 38, -962, -70, 140, -70, -453, -217, 198
97586, -233, 38, -962, -70, 210, -70, -444, -216, 211
97587, -234, 38, -960, 70, 70, -70, -451, -208, 211
97588, -234, 38, -960, 0, 280, -70, -441, -205, 213
97589, -233, 38, -962, 0, 140, -70, -463, -211, 207
97590, -234, 38, -962, -70, 140, -70, -453, -220, 214
97591, -234, 38, -961, 0, 140, -70, -450, -210, 208
97592, -234, 38, -959, 0, 210, -70, -444, -214, 213
97593, -234, 39, -961, 0, 140, -70, -447, -210, 211
97594, -234, 38, -961, 0, 140, -70, -457, -211, 210
97595, -233, 38, -962, 0, 140, -70, -445, -213, 210
97596, -234, 38, -961, 0, 280, -70, -448, -205, 220
97597, -234, 38, -961, 0, 280, -70, -453, -214, 214
97598, -234, 39, -962, 0, 210, -70, -445, -214, 205
97599, -235, 38, -962, 0, 210, -70, -450, -217, 201
97600, -234, 38, -961, 0, 140, -70, -447, -208, 219
97601, -234, 38, -961, -70, 140, -70, -456, -210, 207
97602, -233, 38, -961, -70, 210, -70, -448, -207, 211
97603, -233, 37, -961, 70, 210, -70, -456, -216, 213
97604, -234, 38, -962, 0, 210, -70, -445, -223, 201
97605, -234, 38, -962, 0, 140, -70, -456, -208, 223
97606, -233, 38, -963, 0, 140, -70, -463, -211, 204
97607, -234, 38, -962, 0, 140, -70, -454, -208, 207
97608, -234, 38, -961, 0, 140, -70, -450, -213, 201
97609, -233, 38, -961, 0, 140, -70, -456, -216, 214
97610, -233, 38, -962, 70, 210, -70, -444, -207, 213
97611, -234, 39, -961, 0, 140, -70, -447, -217, 216
97612, -233, 38, -961, 70, 210, -70, -450, -211, 208
97613, -234, 38, -961, 0, 140, -70, -439, -214, 213
97614, -234, 38, -961, 0, 210, -140, -460, -220, 199
97615, -234, 38, -962, 0, 210, -70, -460, -219, 210
97616, -233, 38, -962, 0, 210, -140, -456, -210, 210
97617, -234, 38, -961, 0, 210, -70, -454, -208, 208
97618, -234, 38, -962, 0, 210, -70, -442, -213, 213
97619, -234, 38, -962, 70, 140, -70, -453, -208, 211
97620, -234, 38, -962, 0, 140, -70, -444, -213, 205
97621, -233, 38, -961, 0, 210, -70, -448, -216, 214
97622, -234, 39, -961, 0, 140, -70, -453, -214, 211
97623, -234, 38, -960, 70, 210, -140, -447, -208, 202
97624, -234, 39, -961, 0, 140, -140, -450, -211, 214
97625, -234, 38, -962, 70, 140, -70, -450, -211, 204
97626, -233, 39, -961, 0, 140, -140, -442, -214, 201
97627, -234, 38, -962, -70, 140, -70, -454, -216, 205
97628, -234, 38, -963, 0, 210, -70, -450, -213, 205
97629, -233, 39, -961, 0, 210, -70, -462, -216, 208
97630, -234, 39, -962, 0, 210, -70, -441, -210, 208
97631, -233, 38, -961, 0, 210, -70, -453, -217, 198
97632, -234, 38, -962, 0, 210, -70, -450, -213, 210
97633, -233, 39, -962, 0, 210, 0, -447, -202, 213
97634, -233, 39, -961, 0, 210, -70, -447, -214, 198
97635, -234, 39, -961, 0, 210, -70, -453, -211, 217
97636, -234, 38, -961, -70, 210, -70, -453, -216, 210
97637, -234, 39, -961, -70, 210, -70, -450, -213, 205
97638, -234, 39, -961, 70, 70, -70, -447, -210, 214
97639, -234, 39, -962, 70, 140, -140, -451, -208, 202
97640, -234, 38, -962, 0, 210, -70, -457, -214, 204
97641, -233, 38, -961, 0, 140, -70, -447, -216, 205
97642, -233, 37, -960, 0, 140, 0, -453, -208, 210
97643, -233, 38, -961, -70, 140, 0, -447, -214, 202
97644, -234, 38, -963, 0, 140, -70, -448, -199, 210
97645, -233, 40, -962, 0, 210, -70, -448, -211, 196
97646, -232, 39, -960, 0, 210, -70, -450, -208, 207
97647, -233, 39, -959, 70, 140, -70, -448, -211, 214
97648, -233, 38, -962, 70, 140, -70, -445, -219, 204
97649, -234, 38, -962, 0, 210, -70, -442, -211, 210
97650, -233, 38, -962, 0, 140, -70, -454, -204, 211
97651, -233, 38, -961, 0, 210, -70, -447, -208, 205
97652, -234, 38, -961, -70, 140, -70, -444, -216, 196
97653, -234, 39, -961, 0, 140, -70, -447, -205, 202
97654, -234, 38, -961, 0, 140, -70, -451, -211, 201
97655, -233, 38, -961, 0, 140, -70, -445, -217, 199
97656, -234, 37, -961, 0, 140, -70, -447, -208, 207
97657, -233, 38, -962, 0, 210, -70, -450, -213, 205
97658, -234, 38, -961, 0, 140, -70, -450, -216, 195
97659, -233, 39, -961, 0, 210, -70, -445, -213, 208
97660, -234, 39, -961, 0, 210, -140, -454, -201, 208
97661, -233, 39, -961, 70, 210, -70, -448, -214, 201
97662, -234, 39, -961, 0, 210, -70, -448, -214, 202
97663, -233, 38, -961, 0, 210, -70, -448, -219, 210
97664, -234, 38, -961, 0, 210, -70, -454, -208, 205
97665, -234, 38, -960, 0, 70, -70, -451, -216, 202
97666, -234, 38, -960, 0, 140, -140, -451, -210, 207
97667, -234, 38, -961, -70, 140, -70, -448, -211, 205
97668, -234, 38, -961, 0, 70, -70, -457, -211, 208
97669, -234, 38, -960, -70, 140, -70, -451, -204, 205
97670, -234, 38, -962, 0, 210, -70, -448, -211, 213
97671, -234, 38, -961, 0, 210, -70, -448, -214, 210
97672, -234, 38, -962, 70, 210, -70, -445, -208, 207
97673, -234, 38, -960, 0, 210, -70, -459, -210, 213
97674, -233, 38, -961, 0, 140, -70, -445, -205, 210
97675, -233, 38, -961, 0, 210, 0, -445, -208, 205
97676, -233, 38, -961, 0, 280, -70, -451, -217, 216
97677, -234, 38, -961, 0, 140, -70, -444, -216, 210
97678, -234, 37, -961, -70, 140, -70, -445, -205, 210
97679, -233, 38, -960, 0, 210, -70, -451, -214, 202
97680, -234, 38, -961, 0, 210, -140, -441, -208, 210
97681, -234, 38, -961, 0, 210, -70, -441, -204, 204
97682, -234, 38, -961, 0, 140, -70, -448, -213, 208
97683, -234, 38, -961, 0, 210, -70, -450, -216, 210
97684, -234, 38, -961, -70, 210, -70, -441, -216, 213
97685, -234, 38, -962, 0, 140, -140, -454, -213, 210
97686, -234, 39, -962, 70, 140, -70, -450, -210, 213
97687, -234, 39, -961, 0, 210, -70, -448, -217, 204
97688, -234, 38, -961, 0, 210, -70, -450, -214, 207
97689, -234, 39, -961, -70, 140, -70, -447, -213, 205
97690, -233, 38, -961, 0, 140, -70, -447, -219, 202
97691, -233, 39, -962, 70, 140, -70, -451, -211, 213
97692, -234, 38, -962, 0, 140, -70, -453, -210, 205
97693, -234, 39, -961, 0, 140, -70, -442, -214, 205
97694, -233, 39, -961, -70, 210, -70, -442, -204, 211
97695, -233, 38, -962, 70, 210, -70, -447, -210, 210
97696, -233, 38, -961, 70, 210, -70, -442, -216, 223
97697, -234, 38, -960, 0, 210, -70, -450, -213, 202
97698, -234, 38, -961, 0, 210, -70, -459, -213, 207
97699, -233, 39, -961, 0, 140, -70, -445, -207, 210
97700, -233, 39, -961, 0, 140, -70, -447, -211, 196
97701, -233, 38, -961, 0, 210, -70, -450, -208, 208
97702, -234, 38, -961, 0, 140, -70, -447, -214, 211
97703, -233, 39, -962, 0, 140, -70, -442, -207, 210
97704, -234, 39, -961, 70, 140, -70, -462, -210, 202
97705, -233, 38, -961, 70, 210, -70, -450, -214, 199
97706, -234, 38, -961, 0, 140, -70, -450, -213, 219
97707, -234, 38, -961, -70, 140, -140, -448, -214, 214
97708, -233, 38, -961, 0, 140, -70, -454, -213, 213
97709, -234, 38, -962, 0, 140, -70, -456, -211, 204
97710, -233, 38, -961, -70, 70, -70, -450, -204, 198
97711, -233, 38, -961, 0, 210, -70, -462, -210, 202
97712, -234, 38, -961, 70, 210, -140, -445, -208, 204
97713, -234, 39, -961, 0, 140, -70, -454, -208, 213
97714, -234, 38, -961, 0, 140, -70, -447, -204, 217
97715, -234, 39, -961, 0, 210, -70, -450, -211, 213
97716, -234, 38, -961, 70, 140, -70, -456, -210, 199
97717, -234, 39, -960, 70, 140, -70, -456, -207, 205
97718, -233, 38, -962, 70, 210, -70, -453, -211, 210
97719, -233, 38, -962, 0, 140, -70, -448, -216, 210
97720, -233, 38, -962, 70, 140, -70, -445, -210, 220
97721, -234, 39, -962, 0, 140, 0, -450, -214, 205
97722, -233, 38, -961, 0, 140, -70, -438, -217, 216
97723, -233, 38, -961, -70, 210, -70, -450, -208, 214
97724, -233, 38, -961, 0, 70, -70, -454, -216, 205
97725, -233, 38, -961, 0, 140, -70, -447, -205, 207
97726, -234, 38, -961, 70, 210, -70, -454, -208, 210
97727, -234, 38, -961, 0, 140, -70, -445, -210, 205
97728, -234, 38, -961, -70, 140, -140, -447, -207, 205
97729, -234, 39, -962, 0, 140, -70, -451, -213, 199
97730, -234, 38, -961, -70, 210, -70, -447, -216, 208
97731, -234, 38, -961, 0, 140, -70, -447, -211, 210
97732, -234, 38, -962, 0, 140, -70, -454, -220, 208
97733, -234, 38, -962, 70, 210, -70, -448, -219, 208
97734, -233, 38, -962, 0, 210, -70, -450, -211, 207
97735, -234, 39, -961, 0, 210, -70, -445, -205, 202
97736, -234, 38, -961, 0, 140, -70, -454, -208, 210
97737, -233, 39, -961, 0, 140, -70, -448, -207, 208
97738, -234, 38, -962, 0, 210, -70, -448, -205, 210
97739, -234, 38, -961, 70, 140, -70, -451, -213, 198
97740, -234, 38, -962, 70, 140, -70, -448, -208, 219
97741, -233, 38, -961, -70, 140, -70, -454, -216, 210
97742, -234, 38, -961, 0, 210, 0, -448, -216, 213
97743, -233, 38, -962, 0, 210, -70, -448, -216, 207
97744, -234, 38, -960, 0, 210, -70, -445, -204, 204
97745, -234, 39, -961, 0, 140, -70, -451, -208, 207
97746, -234, 38, -963, 0, 210, -70, -457, -216, 213
97747, -234, 38, -961, 0, 140, -70, -456, -213, 214
97748, -234, 38, -960, -70, 140, -70, -444, -204, 207
97749, -233, 38, -961, -70, 140, -70, -454, -208, 211
97750, -234, 38, -961, 0, 210, -70, -451, -210, 205
97751, -234, 38, -962, 0, 140, -70, -451, -213, 208
97752, -234, 39, -962, 0, 140, -70, -457, -202, 207
97753, -233, 38, -962, -70, 210, -70, -442, -211, 207
97754, -234, 38, -961, -70, 210, -70, -451, -211, 211
97755, -234, 38, -961, 70, 140, -70, -444, -211, 205
97756, -234, 38, -960, 0, 140, -70, -453, -210, 205
97757, -233, 38, -962, 70, 210, -70, -447, -210, 213
97758, -234, 38, -961, 70, 140, -70, -441, -202, 210
97759, -234, 38, -962, 0, 210, -70, -451, -210, 204
97760, -233, 38, -962, 70, 140, -70, -441, -214, 204
97761, -233, 38, -961, 70, 70, -70, -459, -211, 201
97762, -233, 38, -961, 70, 210, -70, -447, -207, 214
97763, -233, 38, -962, 0, 210, -70, -448, -202, 208
97764, -234, 38, -961, 0, 140, -70, -462, -207, 213
97765, -233, 38, -960, 0, 210, -70, -451, -208, 202
97766, -234, 39, -961, 0, 140, -70, -457, -210, 205
97767, -233, 39, -961, 70, 140, 0, -444, -214, 207
97768, -234, 39, -962, 0, 210, -140, -448, -205, 204
97769, -234, 38, -962, 0, 210, -70, -454, -217, 205
97770, -234, 39, -962, 0, 140, -70, -459, -198, 204
97771, -234, 38, -961, 70, 210, -70, -444, -214, 211
97772, -234, 38, -961, -70, 140, -70, -456, -211, 204
97773, -233, 38, -961, 0, 140, -70, -456, -207, 210
97774, -235, 37, -959, 0, 140, -70, -441, -210, 211
97775, -234, 38, -961, 0, 280, -70, -447, -213, 205
97776, -234, 39, -964, 0, 210, -70, -453, -210, 214
97777, -234, 38, -963, 0, 210, -70, -457, -214, 202
97778, -233, 39, -960, -70, 210, -70, -459, -205, 202
97779, -234, 38, -960, 70, 210, -70, -447, -216, 199
97780, -234, 37, -962, 0, 280, -70, -459, -201, 204
97781, -234, 38, -964, -70, 210, -70, -447, -213, 198
97782, -233, 38, -961, -70, 140, -70, -451, -210, 210
97783, -234, 38, -959, 70, 210, -70, -453, -211, 204
97784, -234, 38, -961, 0, 140, -70, -453, -208, 211
97785, -234, 39, -962, -70, 140, -70, -450, -214, 201
97786, -234, 38, -963, -70, 140, -70, -450, -217, 190
97787, -234, 38, -962, 0, 210, -70, -451, -207, 210
97788, -234, 38, -961, -70, 140, -70, -450, -210, 210
97789, -234, 39, -960, 0, 210, -70, -448, -211, 202
97790, -234, 39, -961, 0, 210, -70, -448, -214, 202
97791, -233, 39, -961, 0, 210, -70, -451, -216, 208
97792, -233, 38, -961, -70, 210, -70, -459, -213, 207
97793, -234, 38, -961, 0, 140, -70, -460, -211, 195
97794, -234, 38, -961, 70, 140, -70, -450, -211, 211
97795, -234, 38, -962, 0, 140, 0, -456, -207, 202
97796, -234, 38, -961, 70, 140, -70, -441, -214, 198
97797, -234, 39, -962, 70, 140, -70, -444, -211, 204
97798, -234, 39, -961, 0, 140, -70, -456, -208, 205
97799, -235, 38, -961, 0, 210, -70, -451, -204, 208
97800, -234, 39, -961, 70, 210, -70, -453, -211, 213
97801, -234, 37, -961, 70, 140, -70, -451, -208, 207
97802, -234, 38, -962, -70, 70, -70, -454, -213, 201
97803, -234, 38, -961, 0, 210, -70, -448, -208, 202
97804, -234, 38, -961, 0, 140, -70, -442, -207, 210
97805, -233, 39, -960, 70, 210, -70, -450, -213, 204
97806, -233, 38, -961, 0, 210, -70, -441, -216, 216
97807, -233, 38, -962, 0, 140, -70, -463, -211, 202
97808, -234, 38, -961, 0, 140, -70, -447, -210, 210
97809, -234, 38, -961, 0, 140, -70, -454, -217, 202
97810, -233, 38, -961, -70, 140, -70, -448, -213, 202
97811, -234, 38, -961, 0, 210, -70, -447, -213, 204
97812, -233, 39, -962, 70, 210, -70, -456, -210, 207
97813, -233, 38, -961, -70, 70, -70, -451, -207, 207
97814, -234, 38, -961, 0, 210, -70, -439, -207, 210
97815, -234, 38, -960, 0, 210, -70, -451, -207, 195
97816, -234, 37, -962, 0, 210, -70, -451, -213, 205
97817, -234, 38, -961, 0, 140, -70, -459, -216, 201
97818, -234, 39, -960, 0, 140, -70, -454, -211, 207
97819, -234, 38, -961, 0, 140, -70, -456, -211, 205
97820, -234, 38, -962, 70, 140, -140, -448, -213, 214
97821, -234, 38, -961, 0, 210, -70, -448, -213, 210
97822, -234, 38, -961, -70, 280, -70, -448, -214, 207
97823, -234, 38, -962, 0, 210, -70, -456, -214, 210
97824, -234, 38, -961, 0, 140, -70, -454, -205, 204
97825, -234, 38, -960, 0, 210, -70, -457, -205, 199
97826, -235, 39, -961, 0, 140, -70, -450, -213, 207
97827, -234, 39, -961, 0, 210, -70, -451, -210, 211
97828, -233, 39, -961, 0, 140, -70, -459, -216, 207
97829, -234, 38, -961, 0, 210, -140, -445, -210, 205
97830, -233, 38, -961, 0, 210, -70, -448, -208, 216
97831, -234, 38, -961, 0, 140, -70, -451, -213, 210
97832, -233, 38, -961, 0, 210, -70, -450, -214, 202
97833, -234, 38, -961, 0, 140, -70, -445, -208, 207
97834, -233, 38, -961, 70, 140, -70, -450, -211, 204
97835, -233, 38, -962, 0, 140, -70, -450, -210, 214
97836, -234, 39, -962, 0, 210, -70, -453, -210, 208
97837, -234, 38, -962, 0, 210, -70, -448, -207, 202
97838, -234, 38, -961, 0, 210, -70, -451, -211, 201
97839, -234, 39, -962, -70, 210, -70, -450, -222, 217
97840, -234, 38, -961, 0, 210, -70, -444, -213, 213
97841, -233, 38, -961, 0, 140, -70, -453, -219, 207
97842, -234, 39, -961, 0, 210, -70, -450, -213, 211
97843, -234, 39, -960, 0, 140, -70, -451, -210, 213
97844, -234, 38, -961, 0, 140, -70, -453, -208, 214
97845, -233, 38, -961, 0, 140, -70, -448, -213, 207
97846, -234, 38, -961, 0, 210, -70, -441, -204, 216
97847, -233, 38, -961, 0, 140, -70, -442, -211, 210
97848, -233, 38, -960, 0, 140, -140, -451, -216, 208
97849, -234, 38, -961, 0, 210, -70, -451, -205, 202
97850, -233, 38, -960, 0, 140, -70, -451, -207, 207
97851, -234, 38, -961, 0, 210, -70, -442, -216, 204
97852, -234, 38, -962, 0, 210, -70, -447, -213, 204
97853, -235, 38, -961, 0, 210, -140, -448, -217, 205
97854, -234, 38, -961, 0, 140, -70, -448, -213, 208
97855, -234, 38, -962, 70, 140, -70, -457, -214, 210
97856, -234, 37, -962, 0, 140, -70, -457, -204, 210
97857, -233, 38, -961, 0, 140, -70, -466, -210, 201
97858, -234, 38, -962, 0, 140, -70, -451, -219, 210
97859, -234, 38, -961, 0, 140, -70, -447, -210, 201
97860, -233, 38, -962, 0, 210, -70, -453, -210, 214
97861, -233, 39, -961, 0, 140, -70, -456, -219, 211
97862, -233, 39, -961, 70, 70, -70, -444, -207, 208
97863, -234, 38, -961, 0, 70, -70, -447, -211, 211
97864, -234, 38, -961, 0, 140, -70, -448, -213, 205
97865, -234, 38, -961, 0, 210, 0, -448, -207, 205
97866, -234, 39, -961, 70, 210, -70, -454, -211, 205
97867, -234, 39, -961, 0, 210, -70, -445, -210, 208
97868, -234, 37, -962, 0, 210, -70, -454, -211, 219
97869, -233, 38, -961, -70, 140, -70, -454, -216, 210
97870, -234, 38, -962, 0, 140, 0, -456, -220, 210
97871, -234, 38, -961, 0, 210, -70, -451, -201, 201
97872, -234, 38, -961, 70, 210, -70, -447, -213, 204
97873, -235, 38, -962, 70, 210, -70, -448, -211, 211
97874, -234, 39, -961, 0, 140, -70, -448, -211, 207
97875, -233, 38, -963, 0, 210, -70, -454, -220, 208
97876, -234, 38, -962, -70, 70, -70, -442, -211, 204
97877, -234, 38, -961, 0, 210, -70, -456, -214, 211
97878, -234, 38, -961, 70, 210, -70, -453, -205, 211
97879, -234, 38, -961, 0, 140, -70, -453, -213, 211
97880, -235, 38, -962, 0, 210, -70, -453, -214, 214
97881, -234, 38, -961, 0, 140, -70, -457, -211, 201
97882, -233, 38, -961, 0, 210, -70, -447, -219, 214
97883, -233, 38, -960, 0, 140, -70, -451, -214, 208
97884, -235, 38, -962, 0, 210, -70, -454, -208, 219
97885, -234, 38, -961, 0, 210, 0, -451, -213, 207
97886, -235, 37, -961, 0, 210, -70, -450, -211, 213
97887, -235, 38, -961, 70, 210, -70, -453, -213, 201
97888, -234, 38, -962, -70, 140, -70, -451, -210, 208
97889, -234, 38, -960, 0, 210, -140, -448, -202, 207
97890, -233, 38, -961, 0, 210, -70, -456, -211, 207
97891, -234, 38, -960, -70, 210, -70, -445, -211, 214
97892, -234, 38, -961, 0, 140, -70, -447, -228, 201
97893, -234, 38, -960, 70, 140, -70, -459, -214, 207
97894, -234, 38, -961, 0, 210, -70, -451, -211, 210
97895, -234, 39, -961, -70, 210, -70, -451, -216, 201
97896, -233, 39, -961, 0, 210, -70, -448, -205, 213
97897, -234, 38, -960, 70, 140, -70, -451, -204, 207
97898, -234, 38, -960, 0, 140, -70, -450, -205, 204
97899, -233, 38, -961, -70, 140, -70, -450, -216, 198
97900, -234, 38, -961, 0, 140, -140, -456, -211, 199
97901, -234, 39, -961, 0, 210, -70, -453, -210, 207
97902, -234, 38, -961, 0, 210, -70, -456, -214, 213
97903, -234, 39, -961, 0, 70, -70, -453, -213, 202
97904, -234, 39, -961, 0, 140, -70, -448, -219, 208
97905, -234, 38, -962, -70, 210, -140, -462, -211, 198
97906, -234, 38, -962, 70, 70, -70, -453, -217, 210
97907, -234, 38, -961, -70, 140, 0, -448, -207, 204
97908, -234, 38, -961, 0, 140, -70, -454, -211, 210
97909, -234, 39, -961, 70, 140, -70, -448, -214, 214
97910, -234, 38, -960, 0, 210, -70, -456, -213, 207
97911, -234, 38, -961, 0, 210, -70, -448, -210, 204
97912, -234, 38, -961, 0, 70, -70, -457, -210, 213
97913, -233, 39, -962, 0, 140, -70, -451, -210, 207
97914, -233, 39, -961, 70, 140, -70, -445, -207, 213
97915, -234, 39, -962, 0, 140, -70, -447, -210, 208
97916, -233, 38, -961, -70, 140, -70, -439, -208, 213
97917, -234, 38, -962, 0, 210, -70, -444, -208, 214
97918, -234, 39, -961, 0, 210, -70, -454, -211, 204
97919, -234, 39, -960, 0, 140, -70, -453, -210, 201
97920, -234, 39, -962, 70, 140, -70, -454, -210, 202
97921, -233, 38, -962, -70, 210, -70, -454, -211, 198
97922, -234, 38, -960, -70, 140, -70, -448, -223, 202
97923, -234, 38, -961, 0, 140, -70, -457, -217, 208
97924, -233, 38, -962, 0, 140, 0, -450, -214, 213
97925, -234, 38, -961, 0, 140, -70, -445, -210, 211
97926, -234, 38, -962, 0, 140, -70, -448, -205, 217
97927, -233, 38, -961, 70, 210, -70, -456, -216, 207
97928, -234, 38, -962, 0, 210, -70, -451, -217, 208
97929, -233, 38, -962, 140, 210, -140, -448, -211, 204
97930, -234, 38, -961, 70, 140, -70, -451, -217, 204
97931, -234, 38, -961, 0, 140, -70, -456, -214, 207
97932, -234, 38, -961, 0, 210, -70, -448, -219, 201
97933, -234, 39, -962, 0, 210, -70, -456, -213, 198
97934, -234, 39, -961, 0, 140, -70, -447, -210, 196
97935, -234, 38, -962, 0, 140, -70, -457, -202, 204
97936, -233, 38, -961, -70, 210, -70, -447, -205, 207
97937, -234, 38, -961, 70, 140, -70, -451, -213, 199
97938, -234, 38, -961, 70, 210, 0, -451, -213, 201
97939, -234, 38, -962, 0, 140, -70, -453, -213, 204
97940, -233, 38, -961, -70, 210, -70, -447, -216, 202
97941, -234, 38, -961, 0, 140, -70, -459, -210, 205
97942, -233, 39, -961, 0, 210, -70, -447, -217, 213
97943, -233, 38, -960, 70, 210, -70, -457, -208, 208
97944, -234, 38, -961, 0, 210, -70, -453, -210, 204
97945, -234, 38, -961, 0, 140, -70, -450, -216, 193
97946, -233, 38, -961, 0, 70, -70, -447, -219, 211
97947, -234, 39, -961, 0, 210, -70, -451, -210, 205
97948, -234, 38, -962, 0, 140, -70, -453, -208, 204
97949, -234, 38, -961, 0, 140, -70, -442, -208, 201
97950, -234, 38, -961, 0, 140, -70, -447, -220, 210
97951, -234, 38, -962, 0, 210, -70, -453, -213, 207
97952, -233, 38, -962, 0, 140, -70, -451, -213, 208
97953, -234, 39, -961, 70, 210, -140, -448, -217, 213
97954, -234, 38, -961, 0, 210, -140, -453, -210, 204
97955, -234, 38, -961, 0, 280, -140, -460, -216, 196
97956, -235, 39, -961, 0, 140, -70, -451, -213, 207
97957, -234, 39, -962, -70, 140, -70, -454, -205, 208
97958, -234, 38, -961, 0, 140, -70, -451, -213, 210
97959, -233, 38, -962, 70, 140, -70, -447, -217, 207
97960, -234, 38, -962, 70, 210, 0, -456, -211, 211
97961, -235, 37, -961, 70, 210, -70, -453, -217, 210
97962, -234, 37, -960, -70, 140, -70, -447, -208, 204
97963, -234, 37, -961, 70, 140, -140, -457, -219, 208
97964, -234, 38, -961, 70, 140, -70, -454, -210, 199
97965, -234, 39, -961, 0, 140, -70, -450, -211, 204
97966, -234, 38, -961, 70, 140, -70, -448, -204, 201
97967, -234, 39, -961, 0, 140, -70, -448, -220, 210
97968, -233, 38, -961, 0, 140, -70, -450, -222, 214
97969, -233, 39, -962, 0, 210, -70, -453, -208, 202
97970, -233, 38, -961, -70, 140, -70, -448, -216, 208
97971, -233, 38, -961, 0, 140, -70, -451, -211, 207
97972, -234, 39, -961, 0, 210, -70, -445, -210, 195
97973, -233, 39, -961, 0, 140, -70, -454, -213, 204
97974, -233, 38, -961, 0, 210, -70, -456, -208, 213
97975, -233, 39, -960, 0, 140, -70, -456, -222, 204
97976, -233, 38, -961, 0, 140, -70, -451, -205, 208
97977, -233, 39, -961, 0, 140, -140, -448, -214, 207
97978, -234, 37, -961, 0, 210, -70, -454, -217, 211
97979, -233, 39, -961, 0, 140, -70, -454, -213, 204
97980, -233, 38, -961, -70, 140, -70, -451, -213, 208
97981, -233, 39, -962, 0, 210, -70, -456, -207, 211
97982, -234, 38, -962, 0, 140, -70, -460, -210, 205
97983, -234, 38, -962, 0, 140, -140, -454, -219, 202
97984, -234, 38, -961, -70, 210, -70, -459, -201, 210
97985, -234, 38, -961, 0, 140, -70, -448, -205, 207
97986, -234, 39, -961, 0, 140, -70, -447, -216, 205
97987, -235, 39, -961, -70, 140, 0, -453, -220, 198
97988, -234, 38, -960, 0, 210, -70, -451, -216, 201
97989, -233, 38, -961, 0, 140, -70, -450, -213, 204
97990, -234, 38, -961, 0, 140, -70, -460, -214, 211
97991, -234, 38, -961, -70, 210, -70, -451, -214, 204
97992, -234, 38, -961, 0, 210, -70, -448, -213, 205
97993, -234, 39, -961, 0, 210, 0, -450, -211, 204
97994, -234, 38, -960, 70, 210, -70, -442, -211, 216
97995, -233, 39, -961, 0, 70, -70, -450, -225, 205
97996, -234, 38, -961, 0, 140, -70, -453, -211, 216
97997, -234, 39, -962, 0, 210, -70, -445, -216, 208
97998, -234, 38, -962, 70, 210, -70, -450, -217, 207
97999, -234, 37, -961, 0, 140, -70, -447, -219, 205
98000, -234, 38, -961, -70, 140, -70, -445, -201, 204
98001, -234, 39, -962, 0, 210, -70, -450, -210, 211
98002, -234, 38, -962, 0, 140, 0, -453, -219, 216
98003, -233, 38, -962, 0, 210, -70, -454, -213, 210
98004, -234, 39, -961, -70, 210, -70, -453, -213, 204
98005, -234, 38, -962, 0, 140, -70, -448, -213, 214
98006, -234, 38, -961, 0, 210, -70, -459, -204, 201
98007, -234, 38, -962, 70, 140, -70, -456, -208, 201
98008, -233, 38, -961, 0, 140, -70, -451, -208, 202
98009, -233, 38, -962, 70, 210, -70, -445, -213, 210
98010, -233, 38, -961, 0, 140, -70, -451, -210, 217
98011, -234, 38, -960, 0, 210, -70, -450, -211, 202
98012, -234, 38, -961, 0, 140, -70, -451, -211, 207
98013, -233, 38, -962, 0, 210, -70, -445, -208, 207
98014, -234, 39, -962, 0, 210, -70, -450, -211, 217
98015, -234, 38, -962, 0, 140, -70, -454, -208, 207
98016, -234, 38, -962, 0, 140, -70, -450, -214, 204
98017, -234, 38, -961, 70, 210, -70, -451, -207, 207
98018, -234, 38, -962, 0, 210, -70, -460, -210, 205
98019, -233, 39, -962, 0, 140, -70, -445, -205, 202
98020, -234, 38, -961, 0, 210, -70, -451, -211, 207
98021, -234, 39, -961, 0, 210, -70, -450, -216, 210
98022, -233, 37, -960, 0, 140, -70, -441, -219, 219
98023, -234, 38, -961, 0, 210, -140, -444, -216, 199
98024, -233, 38, -961, 0, 140, -70, -454, -213, 213
98025, -234, 38, -961, 70, 140, -70, -453, -211, 201
98026, -233, 38, -961, 0, 140, -70, -448, -216, 199
98027, -233, 38, -962, -70, 210, -70, -445, -210, 210
98028, -234, 39, -961, 0, 70, -70, -447, -217, 219
98029, -233, 38, -960, 0, 140, -70, -450, -208, 210
98030, -234, 39, -962, 0, 140, -70, -453, -214, 204
98031, -233, 38, -961, 0, 140, -70, -453, -220, 199
98032, -234, 38, -962, 0, 210, -70, -456, -210, 210
98033, -233, 38, -961, 0, 210, -70, -454, -213, 207
98034, -233, 38, -961, 70, 140, -70, -450, -213, 208
98035, -234, 38, -961, 0, 210, -70, -447, -198, 205
98036, -234, 38, -961, 0, 140, -70, -444, -211, 196
98037, -234, 38, -961, 70, 140, -70, -450, -207, 210
98038, -233, 38, -961, 70, 210, -70, -457, -211, 211
98039, -234, 38, -961, 0, 210, -70, -462, -210, 211
98040, -233, 38, -960, -70, 210, -70, -450, -217, 207
98041, -234, 38, -961, 0, 280, -140, -445, -213, 210
98042, -234, 38, -961, 0, 140, -70, -450, -216, 207
98043, -234, 38, -961, 70, 210, -70, -442, -207, 202
98044, -234, 38, -962, 0, 140, -70, -457, -213, 208
98045, -233, 39, -962, -70, 140, -70, -450, -216, 217
98046, -234, 38, -961, 0, 210, 0, -442, -210, 208
98047, -234, 38, -960, 0, 210, -70, -447, -202, 205
98048, -233, 38, -961, 0, 140, -70, -451, -211, 208
98049, -234, 38, -962, 0, 210, -70, -456, -208, 213
98050, -234, 37, -962, 70, 140, -70, -456, -213, 198
98051, -234, 38, -962, 70, 140, -70, -454, -207, 207
98052, -234, 38, -961, 0, 140, -70, -453, -213, 201
98053, -234, 38, -961, 0, 140, -140, -456, -205, 199
98054, -233, 38, -960, 0, 140, -70, -453, -213, 211
98055, -234, 38, -961, 0, 210, -70, -450, -213, 205
98056, -234, 38, -962, 70, 140, -70, -447, -214, 208
98057, -234, 38, -962, 0, 140, -70, -439, -216, 202
98058, -234, 38, -962, 0, 210, -70, -453, -214, 211
98059, -233, 38, -961, 0, 140, -70, -445, -211, 217
98060, -234, 38, -963, 0, 210, -70, -451, -204, 202
98061, -234, 38, -961, 0, 140, -70, -445, -211, 202
98062, -233, 38, -961, 70, 140, -70, -447, -216, 208
98063, -233, 38, -961, 0, 140, -70, -448, -210, 210
98064, -234, 38, -961, 70, 210, -70, -454, -207, 204
98065, -234, 38, -960, 70, 210, -70, -451, -211, 208
98066, -234, 38, -961, 0, 210, -70, -451, -216, 208
98067, -233, 38, -961, 0, 140, -70, -450, -205, 205
98068, -234, 38, -961, 70, 210, -70, -454, -211, 205
98069, -233, 38, -962, 0, 210, -70, -447, -213, 207
98070, -234, 38, -962, 0, 140, -70, -439, -208, 207
98071, -234, 38, -961, 0, 140, -70, -454, -216, 202
98072, -234, 38, -961, 0, 210, -140, -453, -208, 202
98073, -234, 38, -961, 0, 210, -70, -448, -217, 210
98074, -234, 37, -962, 70, 140, -70, -450, -219, 214
98075, -233, 38, -960, -70, 140, -70, -454, -210, 211
98076, -233, 38, -961, 0, 140, -70, -444, -207, 207
98077, -235, 38, -962, 0, 140, -70, -441, -217, 205
98078, -234, 38, -962, -70, 210, -70, -454, -213, 216
98079, -233, 38, -962, -70, 140, -70, -453, -213, 204
98080, -234, 38, -960, 0, 210, -70, -457, -210, 207
98081, -234, 38, -961, 0, 210, -70, -450, -216, 205
98082, -234, 38, -962, 0, 140, -70, -459, -211, 205
98083, -233, 37, -961, 0, 140, -70, -454, -211, 207
98084, -234, 38, -962, 70, 140, -70, -450, -214, 201
98085, -234, 39, -962, 70, 210, -70, -453, -217, 207
98086, -233, 38, -961, -70, 210, -70, -448, -211, 214
98087, -233, 38, -961, 0, 140, -70, -456, -217, 205
98088, -234, 39, -961, 0, 140, -70, -456, -211, 205
98089, -234, 38, -961, 0, 140, -70, -456, -210, 207
98090, -234, 38, -961, 70, 210, -70, -459, -213, 214
98091, -234, 39, -960, 0, 140, -70, -450, -214, 201
98092, -234, 38, -961, 0, 140, -70, -451, -220, 214
98093, -234, 38, -962, 70, 140, -70, -442, -216, 210
98094, -234, 38, -963, -70, 140, -70, -457, -201, 210
98095, -234, 38, -962, 70, 140, -70, -442, -214, 208
98096, -234, 39, -962, 0, 210, -70, -451, -216, 213
98097, -234, 38, -961, 70, 140, -70, -450, -201, 204
98098, -234, 38, -961, -70, 280, -70, -462, -211, 207
98099, -234, 38, -962, 0, 210, -70, -448, -214, 208
98100, -234, 38, -962, 70, 210, -70, -445, -210, 202
98101, -234, 38, -961, 0, 140, -70, -451, -216, 207
98102, -234, 38, -961, 0, 210, -70, -441, -219, 213
98103, -233, 38, -961, 0, 210, -70, -454, -216, 211
98104, -234, 38, -961, 0, 140, -70, -456, -207, 204
98105, -234, 38, -961, 0, 140, -70, -445, -199, 204
98106, -233, 37, -961, 0, 140, -70, -457, -219, 211
98107, -234, 38, -962, 0, 210, -70, -448, -207, 199
98108, -234, 38, -961, 0, 140, -70, -451, -219, 208
98109, -234, 38, -961, 0, 210, -70, -447, -211, 202
98110, -234, 38, -962, -70, 210, -70, -451, -213, 204
98111, -234, 39, -962, 0, 210, -70, -447, -207, 208
98112, -234, 38, -961, -70, 210, -70, -453, -213, 201
98113, -233, 38, -961, 0, 210, -70, -454, -213, 205
98114, -234, 38, -961, 70, 210, -70, -448, -214, 199
98115, -234, 38, -961, 70, 210, -70, -451, -216, 204
98116, -233, 39, -961, 0, 210, -70, -453, -205, 205
98117, -234, 39, -960, 0, 140, -70, -450, -214, 196
98118, -234, 38, -961, 0, 140, -70, -447, -216, 205
98119, -233, 38, -961, 0, 140, -70, -450, -211, 211
98120, -234, 38, -961, 0, 210, -70, -448, -217, 213
98121, -234, 38, -962, 0, 140, -70, -448, -211, 202
98122, -234, 38, -961, 0, 210, -70, -448, -211, 195
98123, -234, 39, -961, 0, 140, -70, -448, -207, 204
98124, -234, 39, -961, 0, 210, -70, -453, -210, 211
98125, -234, 39, -961, -70, 140, -70, -451, -208, 198
98126, -234, 39, -962, 0, 140, -70, -451, -211, 210
98127, -233, 38, -962, -70, 210, 0, -453, -214, 204
98128, -234, 38, -961, -70, 140, -70, -453, -207, 207
98129, -234, 38, -961, 0, 140, -70, -448, -217, 210
98130, -234, 38, -961, -70, 140, -70, -456, -211, 205
98131, -234, 38, -962, 0, 140, -70, -448, -213, 207
98132, -233, 38, -960, 70, 210, -70, -448, -214, 205
98133, -233, 38, -961, 0, 210, -70, -457, -213, 211
98134, -233, 38, -962, -70, 210, -70, -450, -213, 211
98135, -234, 38, -961, 0, 210, -70, -448, -207, 204
98136, -234, 38, -961, 0, 140, -70, -447, -219, 213
98137, -233, 38, -961, 70, 140, -70, -453, -210, 207
98138, -234, 38, -961, 0, 140, -70, -451, -219, 213
98139, -234, 38, -961, 0, 140, -70, -450, -205, 201
98140, -234, 38, -963, 0, 210, -70, -457, -208, 219
98141, -233, 38, -962, 0, 140, -70, -457, -213, 208
98142, -234, 38, -961, 0, 210, -70, -454, -219, 213
98143, -234, 38, -961, 70, 140, -70, -459, -205, 217
98144, -234, 38, -962, 0, 140, -70, -454, -213, 205
98145, -233, 38, -961, 0, 210, -70, -453, -202, 214
98146, -233, 38, -960, -70, 140, 0, -450, -214, 208
98147, -232, 39, -961, 70, 140, -70, -450, -219, 210
98148, -223, 48, -944, 140, 490, -70, -453, -214, 204
98149, -229, 46, -937, 490, 700, -140, -460, -213, 205
98150, -215, 32, -913, 980, 1540, -70, -453, -217, 202
98151, -314, 12, -735, 5390, 7140, -210, -450, -213, 210
98152, -241, 56, -885, 7210, 3920, -280, -451, -214, 216
98153, -288, 100, -1166, 4550, 4130, 420, -456, -214, 207
98154, -227, 49, -1224, 980, 1890, 210, -454, -214, 202
98155, -208, 4, -1131, 0, 210, -420, -453, -217, 214
98156, -224, -1, -866, 0, -1120, -70, -456, -210, 207
98157, -214, 52, -886, -280, -980, 280, -444, -217, 219
98158, -241, 60, -993, -910, -770, 0, -454, -208, 204
98159, -291, 32, -1072, -1260, -1120, -210, -454, -204, 207
98160, -199, 50, -955, -1400, -2310, -140, -453, -216, 213
98161, -176, 79, -956, -2170, -2800, -140, -451, -211, 207
98162, -246, 44, -968, -2800, -2380, -210, -457, -211, 214
98163, -241, 25, -980, -2800, -2730, -280, -454, -222, 216
98164, -254, 26, -947, -2240, -1750, -210, -456, -211, 213
98165, -227, 39, -886, -910, -1330, -210, -457, -208, 217
98166, -226, 37, -923, -700, -1470, -140, -451, -207, 205
98167, -229, 37, -987, -560, -1890, -140, -445, -216, 204
98168, -243, 37, -1007, -630, -1750, -70, -444, -213, 213
98169, -247, 42, -992, -1330, -3500, -280, -442, -216, 205
98170, -259, 56, -976, -1960, -4690, -280, -450, -217, 205
98171, -212, 49, -996, -2660, -6580, -490, -450, -211, 216
98172, -241, 41, -1010, -3080, -5880, -420, -447, -211, 219
98173, -250, 46, -1013, -3640, -7840, -420, -448, -217, 213
98174, -242, 36, -976, -4550, -8190, 70, -442, -213, 213
98175, -247, 31, -975, -5040, -9240, 70, -448, -213, 223
98176, -239, 25, -979, -5460, -10290, 140, -454, -207, 214
98177, -240, 19, -985, -5810, -10990, 280, -453, -217, 211
98178, -244, 16, -983, -6090, -11900, 420, -439, -207, 216
98179, -247, 20, -989, -7210, -15610, 700, -454, -213, 214
98180, -235, 18, -988, -7910, -16660, 910, -435, -211, 210
98181, -242, 14, -993, -8470, -17640, 1190, -441, -208, 216
98182, -269, 10, -994, -9030, -19180, 1470, -448, -208, 211
98183, -277, 10, -994, -10430, -24430, 1820, -441, -208, 211
98184, -283, 17, -994, -11130, -27230, 2030, -433, -199, 210
98185, -279, 20, -997, -12180, -30800, 2240, -438, -205, 216
98186, -277, 23, -1007, -13230, -34370, 2520, -436, -196, 210
98187, -243, 18, -1001, -14140, -37030, 2870, -435, -207, 210
98188, -318, 25, -1008, -16170, -41580, 3500, -429, -207, 205
98189, -320, 36, -991, -17080, -46340, 3640, -435, -214, 216
98190, -372, 55, -966, -18130, -52430, 3500, -432, -196, 216
98191, -343, 61, -926, -19180, -60760, 3290, -426, -201, 225
98192, -301, 60, -905, -19810, -66010, 3290, -426, -192, 205
98193, -315, 48, -966, -20440, -71260, 3780, -417, -192, 213
98194, -384, 51, -992, -20720, -74900, 4060, -412, -196, 216
98195, -345, 54, -960, -21070, -79870, 4270, -411, -202, 208
98196, -371, 64, -939, -21700, -82530, 4690, -421, -199, 207
98197, -384, 61, -922, -23100, -92400, 5250, -400, -190, 211
98198, -349, 32, -855, -23380, -96460, 5600, -399, -192, 207
98199, -331, 34, -895, -23240, -94500, 6300, -396, -201, 195
98200, -363, 32, -964, -22820, -91350, 7070, -397, -189, 201
98201, -477, 41, -997, -22470, -91070, 7700, -387, -187, 201
98202, -552, 69, -803, -23450, -106540, 8050, -390, -190, 193
98203, -472, 78, -751, -24290, -112280, 8400, -381, -184, 192
98204, -418, 77, -779, -24360, -112700, 9100, -366, -178, 186
98205, -417, 58, -847, -23730, -109970, 9800, -355, -184, 187
98206, -510, 45, -928, -22820, -105700, 10500, -360, -181, 187
98207, -631, 82, -862, -22120, -112000, 10850, -361, -180, 186
98208, -601, 111, -746, -22540, -117600, 10990, -352, -178, 172
98209, -562, 138, -715, -23100, -122710, 11480, -346, -186, 171
98210, -543, 139, -734, -23100, -125160, 12040, -333, -186, 169
98211, -840, 115, -818, -21910, -143220, 11550, -324, -177, 157
98212, -674, 124, -695, -22400, -147630, 12040, -324, -178, 162
98213, -613, 112, -660, -21840, -152390, 11830, -312, -177, 144
98214, -598, 156, -683, -20790, -150710, 12460, -321, -162, 144
98215, -622, 185, -694, -19810, -145390, 13020, -303, -168, 129
98216, -684, 269, -767, -18270, -138880, 13020, -298, -169, 124
98217, -842, 343, -792, -17710, -133490, 12880, -303, -162, 123
98218, -871, 375, -710, -18200, -132160, 12320, -289, -168, 114
98219, -761, 412, -635, -18550, -128590, 11900, -288, -162, 105
98220, -838, 454, -595, -19110, -117250, 11970, -285, -165, 94
98221, -911, 421, -470, -21210, -111440, 12110, -274, -156, 84
98222, -976, 351, -418, -22680, -109060, 12600, -268, -165, 87
98223, -885, 293, -429, -23730, -108080, 13090, -270, -159, 79
98224, -831, 256, -467, -24010, -106750, 13440, -261, -159, 87
98225, -761, 179, -577, -23590, -105210, 14700, -247, -156, 70
98226, -750, 165, -622, -22960, -102690, 14980, -261, -153, 52
98227, -830, 180, -664, -22190, -100450, 14980, -256, -153, 58
98228, -891, 182, -637, -21490, -99190, 14840, -256, -145, 58
98229, -984, 177, -626, -20860, -98840, 14560, -244, -151, 45
98230, -999, 161, -534, -19740, -102760, 14070, -243, -147, 43
98231, -995, 191, -523, -19320, -106050, 14070, -244, -150, 24
98232, -946, 215, -504, -18830, -108710, 14420, -241, -150, 25
98233, -915, 214, -474, -18060, -108570, 14980, -243, -148, 18
98234, -890, 201, -443, -17500, -106050, 15610, -229, -144, -7
98235, -883, 219, -452, -16240, -95830, 17290, -226, -145, 3
98236, -881, 227, -438, -15680, -90020, 18130, -220, -139, -1
98237, -907, 231, -415, -15120, -84980, 18900, -226, -141, -4
98238, -915, 235, -393, -15050, -82670, 19530, -222, -135, -1
98239, -825, 259, -333, -14840, -76510, 21000, -223, -132, -18
98240, -813, 281, -317, -14560, -69860, 22190, -219, -136, -27
98241, -837, 288, -313, -14350, -62300, 23380, -223, -133, -31
98242, -838, 278, -309, -14070, -54460, 24500, -216, -133, -33
98243, -853, 269, -314, -13790, -46340, 25480, -219, -133, -33
98244, -848, 278, -300, -13160, -31570, 27160, -216, -130, -36
98245, -846, 279, -287, -12670, -24710, 27790, -208, -118, -34
98246, -854, 279, -270, -12320, -18410, 28350, -210, -118, -34
98247, -855, 278, -257, -11970, -13300, 28770, -217, -124, -39
98248, -864, 283, -251, -11690, -9590, 29050, -213, -117, -39
98249, -898, 293, -249, -11060, -7070, 28910, -210, -120, -39
98250, -916, 296, -251, -10850, -7630, 28630, -220, -114, -39
98251, -933, 303, -258, -10710, -8680, 28420, -214, -117, -46
98252, -939, 313, -264, -10640, -9870, 28280, -207, -111, -37
98253, -933, 328, -266, -10570, -12250, 28140, -213, -111, -37
98254, -933, 339, -268, -10780, -13300, 28140, -208, -106, -31
98255, -933, 352, -270, -11060, -14350, 28140, -199, -100, -33
98256, -933, 362, -267, -11270, -15470, 28280, -207, -97, -40
98257, -930, 369, -262, -11550, -16450, 28280, -205, -88, -36
98258, -932, 378, -248, -12040, -19250, 28070, -207, -100, -46
98259, -935, 382, -243, -12180, -21630, 27720, -205, -99, -42
98260, -930, 386, -238, -12320, -24570, 27160, -201, -99, -37
98261, -924, 386, -232, -12460, -27930, 26530, -202, -93, -37
98262, -914, 381, -224, -12390, -30450, 26040, -214, -94, -40
98263, -927, 387, -221, -12390, -35840, 25200, -207, -91, -52
98264, -935, 387, -223, -12320, -37030, 25270, -193, -85, -49
98265, -940, 384, -215, -12320, -38360, 25200, -198, -81, -51
98266, -937, 381, -213, -12250, -38710, 25480, -207, -93, -52
98267, -950, 394, -211, -12530, -40600, 25690, -201, -82, -58
98268, -941, 395, -198, -12530, -42140, 25760, -202, -81, -61
98269, -952, 403, -193, -12600, -44870, 25690, -189, -81, -69
98270, -938, 402, -182, -12670, -47040, 25970, -205, -70, -61
98271, -949, 408, -177, -12670, -48650, 26040, -201, -67, -78
98272, -986, 418, -165, -13020, -55230, 26390, -193, -64, -76
98273, -982, 413, -151, -13160, -59290, 26460, -192, -72, -78
98274, -996, 420, -149, -13230, -63280, 26600, -202, -61, -82
98275, -989, 425, -147, -13510, -67410, 26950, -198, -61, -85
98276, -972, 428, -143, -13510, -70280, 27370, -192, -57, -91
98277, -970, 419, -118, -13580, -75110, 27720, -183, -58, -97
98278, -977, 417, -105, -13370, -78330, 27860, -193, -45, -97
98279, -976, 416, -97, -13160, -81060, 27860, -189, -61, -105
98280, -974, 423, -89, -12740, -81760, 27860, -187, -48, -111
98281, -969, 436, -69, -11830, -79520, 28140, -195, -52, -115
98282, -955, 440, -61, -11480, -78050, 28560, -187, -46, -126
98283, -919, 439, -45, -10990, -75530, 29190, -184, -40, -133
98284, -895, 444, -30, -10500, -71820, 29960, -187, -42, -138
98285, -882, 457, -21, -10010, -67200, 30940, -183, -40, -144
98286, -851, 463, 1, -9170, -56770, 32410, -183, -36, -150
98287, -845, 468, 9, -8750, -51310, 33110, -201, -43, -147
98288, -849, 474, 23, -8330, -46690, 33880, -183, -37, -150
98289, -853, 476, 32, -7980, -42700, 34650, -195, -28, -165
98290, -851, 474, 47, -7630, -35630, 36050, -183, -22, -154
98291, -873, 482, 55, -6930, -33180, 36610, -199, -28, -166
98292, -889, 493, 55, -6720, -31500, 37240, -181, -22, -160
98293, -877, 495, 60, -6580, -30240, 37730, -180, -15, -166
98294, -848, 496, 69, -6370, -28000, 38360, -184, -25, -174
98295, -819, 510, 74, -5880, -20510, 39620, -189, -12, -169
98296, -823, 519, 70, -5740, -17500, 40110, -184, -12, -159
98297, -831, 526, 73, -5740, -15890, 40460, -186, -12, -174
98298, -849, 533, 74, -5740, -15540, 40810, -193, -3, -166
98299, -866, 538, 78, -5880, -16310, 40950, -193, -3, -165
98300, -871, 533, 88, -5880, -19530, 40810, -186, 9, -159
98301, -854, 526, 100, -5740, -20720, 40740, -193, 1, -171
98302, -877, 526, 99, -5460, -23170, 40180, -186, 6, -171
98303, -864, 528, 104, -5250, -28490, 39270, -192, 7, -172
98304, -835, 535, 113, -3710, -36330, 38220, -198, 9, -168
98305, -802, 559, 120, -2730, -39550, 37800, -187, 9, -175
98306, -815, 574, 111, -1960, -40530, 37310, -199, 15, -183
98307, -808, 560, 108, -1750, -41300, 36750, -186, 6, -189
98308, -768, 547, 118, -1890, -40460, 36330, -199, 18, -189
98309, -728, 601, 131, -2450, -37170, 36400, -190, 22, -186
98310, -727, 619, 145, -2450, -36400, 36750, -204, 25, -189
98311, -762, 616, 146, -2170, -37100, 37100, -198, 25, -198
98312, -780, 605, 154, -1750, -38500, 37100, -192, 34, -195
98313, -815, 598, 146, -1470, -40110, 36890, -202, 31, -190
98314, -802, 587, 147, -1330, -42140, 35980, -205, 30, -204
98315, -775, 592, 153, -1190, -41720, 35980, -199, 36, -202
98316, -754, 605, 158, -1050, -42000, 35980, -192, 39, -213
98317, -739, 620, 165, -770, -42840, 36120, -199, 39, -220
98318, -728, 628, 170, -210, -41930, 36820, -201, 48, -213
98319, -724, 642, 179, 140, -39970, 37170, -199, 49, -214
98320, -706, 648, 186, 350, -37380, 37520, -193, 45, -214
98321, -696, 650, 188, 700, -34020, 37870, -208, 63, -220
98322, -678, 650, 194, 980, -30590, 38360, -207, 69, -214
98323, -681, 653, 200, 1470, -25830, 39410, -192, 55, -219
98324, -687, 655, 202, 1680, -24010, 39830, -201, 55, -232
98325, -689, 657, 208, 1890, -22610, 40180, -202, 66, -234
98326, -695, 660, 212, 2170, -21210, 40460, -193, 73, -229
98327, -699, 666, 212, 2310, -20160, 40600, -205, 78, -217
98328, -692, 676, 214, 2450, -20370, 40670, -202, 72, -222
98329, -686, 680, 214, 2450, -21070, 40600, -202, 67, -238
98330, -676, 681, 217, 2450, -22050, 40390, -208, 76, -228
98331, -677, 684, 217, 2450, -22960, 40180, -211, 84, -231
98332, -659, 690, 221, 2590, -24500, 39550, -217, 84, -234
98333, -636, 699, 224, 2590, -25410, 39130, -213, 91, -243
98334, -600, 701, 238, 2800, -25060, 38920, -214, 88, -226
98335, -574, 705, 238, 3010, -23170, 38710, -213, 94, -235
98336, -576, 710, 235, 3080, -21840, 38360, -222, 96, -226
98337, -567, 723, 236, 3080, -20580, 37520, -213, 94, -237
98338, -569, 730, 236, 3010, -20160, 37170, -214, 93, -235
98339, -576, 737, 240, 3010, -20020, 36750, -211, 94, -234
98340, -561, 741, 244, 3010, -19040, 36330, -217, 106, -234
98341, -555, 741, 244, 3080, -17710, 35770, -219, 112, -244
98342, -537, 742, 242, 3290, -16520, 34790, -225, 105, -231
98343, -533, 746, 242, 3220, -16310, 34300, -222, 114, -238
98344, -533, 751, 243, 3220, -16170, 33670, -219, 108, -232
98345, -546, 759, 241, 3150, -16240, 33110, -229, 121, -241
98346, -543, 766, 249, 2870, -17360, 31710, -220, 112, -240
98347, -525, 763, 249, 2870, -17360, 31080, -232, 127, -241
98348, -511, 761, 254, 3010, -17150, 30450, -237, 117, -232
98349, -511, 767, 255, 2940, -16730, 30030, -223, 130, -243
98350, -511, 774, 255, 3080, -16800, 29470, -229, 120, -250
98351, -508, 783, 258, 3010, -15820, 28560, -241, 132, -244
98352, -506, 785, 261, 3010, -15120, 28210, -234, 130, -238
98353, -517, 791, 261, 2940, -14420, 28000, -223, 129, -235
98354, -516, 793, 260, 2870, -14280, 27720, -220, 135, -235
98355, -522, 793, 260, 2870, -14560, 27370, -232, 136, -246
98356, -533, 790, 260, 2660, -15960, 26740, -234, 142, -244
98357, -535, 793, 261, 2730, -17150, 26390, -240, 133, -244
98358, -530, 796, 266, 2660, -17990, 26180, -237, 144, -244
98359, -532, 799, 264, 2660, -18900, 25900, -232, 148, -246
98360, -515, 805, 271, 2870, -19460, 25760, -234, 136, -247
98361, -508, 806, 273, 2870, -19320, 25690, -226, 145, -246
98362, -511, 810, 270, 2870, -19460, 25690, -232, 147, -247
98363, -506, 815, 269, 2940, -20090, 25690, -244, 153, -244
98364, -507, 817, 270, 2870, -20440, 25550, -238, 160, -252
98365, -495, 812, 269, 2870, -21840, 25060, -243, 157, -252
98366, -479, 815, 270, 2800, -23030, 24570, -246, 148, -252
98367, -459, 819, 272, 2800, -24080, 24080, -247, 147, -255
98368, -432, 817, 278, 2800, -24220, 23520, -241, 162, -255
98369, -405, 816, 285, 2940, -23380, 23030, -250, 163, -243
98370, -392, 830, 286, 3080, -20020, 22400, -249, 162, -250
98371, -393, 837, 291, 3150, -18550, 22260, -250, 166, -247
98372, -397, 838, 294, 3150, -16870, 22120, -250, 168, -256
98373, -412, 837, 294, 3150, -15260, 22050, -243, 162, -253
98374, -441, 839, 292, 3010, -14420, 21700, -252, 163, -253
98375, -450, 837, 295, 3150, -14630, 21490, -253, 166, -255
98376, -452, 833, 297, 3220, -15050, 21350, -250, 172, -255
98377, -456, 834, 301, 3360, -15260, 21420, -259, 165, -261
98378, -462, 840, 301, 3430, -15330, 21560, -259, 184, -258
98379, -473, 847, 303, 3570, -15820, 22190, -259, 180, -256
98380, -472, 845, 305, 3500, -16170, 22470, -250, 172, -253
98381, -468, 845, 305, 3640, -16100, 22820, -253, 177, -250
98382, -466, 844, 307, 3710, -16310, 23170, -256, 175, -253
98383, -458, 845, 306, 3850, -16660, 23450, -258, 175, -262
98384, -422, 847, 315, 4410, -15330, 24360, -264, 181, -261
98385, -408, 848, 320, 4760, -13160, 25060, -259, 186, -261
98386, -413, 855, 319, 5040, -10430, 25970, -262, 190, -246
98387, -419, 860, 310, 5180, -10500, 26530, -252, 178, -253
98388, -403, 857, 315, 5390, -7070, 27720, -273, 184, -250
98389, -411, 856, 313, 5530, -5740, 28210, -271, 190, -258
98390, -414, 858, 311, 5670, -5530, 28560, -270, 193, -256
98391, -411, 866, 308, 5810, -5880, 28770, -273, 189, -255
98392, -401, 867, 307, 5880, -6160, 29050, -264, 190, -244
98393, -371, 864, 304, 5880, -6370, 29120, -276, 196, -247
98394, -354, 867, 303, 5950, -6020, 29120, -274, 199, -250
98395, -339, 875, 301, 5950, -5530, 29120, -277, 208, -249
98396, -325, 874, 301, 5950, -4690, 29190, -271, 202, -247
98397, -317, 875, 300, 6020, -3850, 29120, -267, 204, -252
98398, -317, 879, 296, 5950, -2170, 28910, -267, 198, -240
98399, -326, 882, 293, 5950, -2100, 28630, -279, 213, -252
98400, -336, 883, 289, 5670, -3080, 28210, -273, 213, -243
98401, -355, 890, 281, 5530, -5460, 27650, -273, 214, -244
98402, -301, 905, 284, 4900, -9520, 26110, -285, 208, -249
98403, -273, 896, 283, 4830, -9590, 25480, -282, 211, -249
98404, -248, 889, 281, 4830, -9380, 24990, -279, 210, -241
98405, -231, 891, 279, 4830, -8260, 24640, -282, 219, -243
98406, -232, 894, 278, 4900, -6650, 24500, -283, 222, -247
98407, -271, 904, 280, 4900, -3990, 24150, -282, 210, -241
98408, -286, 913, 282, 4760, -3360, 23870, -282, 228, -238
98409, -294, 913, 280, 4690, -3360, 23590, -291, 220, -240
98410, -296, 906, 279, 4550, -3990, 23310, -285, 226, -240
98411, -294, 901, 277, 4480, -5950, 22890, -283, 223, -241
98412, -275, 907, 280, 4480, -6230, 22680, -297, 231, -250
98413, -272, 913, 279, 4410, -6160, 22470, -292, 223, -246
98414, -266, 918, 279, 4410, -6230, 22400, -291, 229, -241
98415, -261, 919, 279, 4270, -6160, 22260, -291, 234, -244
98416, -267, 914, 280, 4270, -5180, 22470, -298, 234, -237
98417, -275, 917, 281, 4410, -4760, 22610, -286, 235, -247
98418, -286, 921, 281, 4410, -4690, 22750, -307, 238, -237
98419, -283, 920, 283, 4480, -4550, 22890, -297, 231, -247
98420, -280, 918, 281, 4620, -4410, 23100, -292, 241, -249
98421, -263, 918, 280, 4690, -4060, 23520, -295, 237, -243
98422, -250, 918, 281, 4760, -3710, 23730, -306, 237, -234
98423, -239, 917, 284, 4830, -2940, 24010, -301, 237, -238
98424, -229, 918, 283, 4900, -2030, 24150, -300, 241, -232
98425, -222, 919, 285, 5180, 350, 24570, -289, 246, -234
98426, -224, 923, 285, 5250, 1260, 24850, -304, 243, -232
98427, -229, 927, 286, 5320, 1890, 25060, -304, 250, -228
98428, -237, 930, 285, 5180, 2310, 25200, -304, 253, -234
98429, -240, 932, 285, 5180, 2450, 25270, -301, 246, -228
98430, -243, 931, 281, 5040, 1260, 25410, -312, 249, -225
98431, -238, 931, 277, 4970, 0, 25340, -303, 250, -234
98432, -226, 933, 274, 4830, -1330, 25200, -307, 256, -228
98433, -212, 934, 271, 4690, -2660, 24990, -310, 255, -232
98434, -193, 934, 272, 4620, -3500, 24710, -306, 259, -234
98435, -171, 935, 267, 4550, -4480, 24220, -324, 265, -232
98436, -168, 937, 265, 4410, -4830, 23940, -315, 264, -217
98437, -170, 940, 262, 4270, -5390, 23660, -325, 270, -229
98438, -169, 940, 261, 4130, -5810, 23380, -315, 262, -216
98439, -170, 941, 262, 4060, -6090, 23030, -324, 267, -225
98440, -174, 945, 260, 3990, -6300, 23030, -322, 262, -228
98441, -174, 947, 258, 3920, -6720, 22820, -318, 264, -228
98442, -173, 947, 258, 3920, -7140, 22750, -325, 267, -222
98443, -171, 947, 256, 3920, -7630, 22750, -318, 261, -229
98444, -166, 945, 254, 3780, -8540, 22610, -316, 267, -214
98445, -162, 944, 255, 3850, -8820, 22750, -319, 282, -219
98446, -157, 947, 255, 3850, -8680, 22890, -322, 265, -219
98447, -156, 948, 256, 3920, -8330, 23100, -327, 279, -228
98448, -154, 950, 255, 4060, -7980, 23310, -331, 265, -225
98449, -147, 949, 254, 4060, -7700, 23660, -330, 282, -216
98450, -146, 948, 254, 4200, -7630, 23870, -331, 279, -219
98451, -144, 949, 255, 4200, -7350, 24080, -337, 283, -223
98452, -141, 951, 258, 4270, -7070, 24290, -330, 276, -223
98453, -138, 953, 258, 4410, -6720, 24710, -331, 276, -211
98454, -130, 957, 255, 4480, -6860, 24920, -334, 274, -217
98455, -126, 954, 253, 4410, -7210, 24990, -339, 289, -223
98456, -124, 949, 254, 4410, -7700, 25130, -343, 282, -220
98457, -123, 949, 255, 4340, -8120, 25340, -345, 288, -222
98458, -119, 953, 259, 4480, -8190, 25760, -336, 285, -220
98459, -113, 954, 261, 4620, -8050, 26040, -339, 298, -217
98460, -103, 956, 263, 4690, -7630, 26390, -345, 280, -229
98461, -94, 958, 261, 4830, -7070, 26530, -339, 291, -228
98462, -87, 958, 259, 4900, -6790, 26810, -345, 292, -228
98463, -73, 955, 256, 4830, -6860, 26880, -351, 304, -219
98464, -69, 955, 253, 4690, -7280, 26740, -346, 282, -213
98465, -63, 955, 251, 4550, -8190, 26530, -358, 301, -228
98466, -54, 954, 251, 4480, -9100, 26320, -346, 291, -223
98467, -42, 953, 251, 4480, -10080, 25760, -358, 301, -216
98468, -8, 953, 252, 4550, -9940, 25410, -355, 301, -216
98469, 16, 954, 252, 4550, -9240, 24990, -358, 309, -220
98470, 50, 952, 254, 4620, -7560, 24570, -349, 301, -219
98471, 72, 947, 254, 4690, -5110, 24150, -360, 303, -213
98472, 85, 947, 259, 4900, 0, 23450, -355, 298, -205
98473, 74, 953, 263, 5040, 2450, 23100, -358, 303, -211
98474, 61, 958, 266, 4970, 4760, 22750, -367, 310, -213
98475, 34, 965, 263, 4900, 6300, 22330, -361, 303, -202
98476, 27, 969, 263, 4620, 6440, 21700, -358, 307, -213
98477, 29, 965, 258, 4200, 5250, 20300, -367, 313, -207
98478, 34, 961, 258, 3990, 4410, 19530, -363, 306, -213
98479, 24, 963, 251, 3640, 2590, 18690, -367, 312, -210
98480, 31, 967, 249, 3290, 770, 17850, -370, 312, -201
98481, 34, 963, 240, 2660, -3150, 16100, -369, 318, -208
98482, 41, 964, 238, 2380, -4760, 15190, -373, 307, -205
98483, 53, 968, 232, 2240, -5810, 14490, -373, 318, -204
98484, 54, 969, 229, 2170, -6580, 13790, -361, 325, -199
98485, 58, 966, 227, 1960, -6930, 13230, -372, 309, -207
98486, 54, 971, 222, 1890, -6790, 12390, -381, 318, -198
98487, 56, 970, 225, 1890, -6020, 12040, -367, 315, -202
98488, 61, 967, 224, 1890, -5320, 11760, -373, 315, -196
98489, 74, 966, 226, 1960, -4270, 11550, -372, 318, -199
98490, 71, 969, 224, 1960, -3010, 11270, -379, 315, -198
98491, 67, 969, 226, 1960, -1610, 10710, -387, 310, -202
98492, 67, 967, 229, 1820, -1260, 10360, -373, 310, -201
98493, 62, 969, 229, 1750, -980, 10010, -376, 325, -201
98494, 60, 971, 232, 1750, -1120, 9590, -378, 321, -201
98495, 65, 970, 231, 1540, -1610, 8610, -373, 316, -201
98496, 71, 969, 233, 1330, -2240, 8120, -373, 318, -195
98497, 78, 970, 231, 1190, -2450, 7560, -381, 304, -202
98498, 77, 971, 230, 980, -3010, 7000, -384, 325, -196
98499, 81, 970, 229, 840, -3500, 6370, -379, 316, -198
98500, 101, 967, 230, 630, -3990, 4970, -379, 321, -199
98501, 113, 967, 228, 490, -3850, 4200, -384, 324, -195
98502, 127, 964, 228, 350, -3570, 3430, -388, 331, -198
98503, 132, 964, 226, 280, -2940, 2660, -385, 319, -193
98504, 126, 966, 227, 210, -2590, 1960, -378, 321, -201
98505, 107, 972, 232, 0, -1260, 700, -391, 324, -195
98506, 93, 971, 233, -70, -770, 140, -382, 315, -199
98507, 77, 970, 233, -140, -770, -420, -381, 318, -198
98508, 65, 972, 232, -350, -1120, -910, -376, 325, -199
98509, 63, 969, 234, -560, -2590, -1820, -388, 315, -201
98510, 73, 966, 236, -630, -2800, -2310, -382, 316, -199
98511, 82, 965, 236, -700, -2590, -2660, -381, 313, -204
98512, 86, 967, 235, -630, -2170, -2940, -382, 321, -199
98513, 84, 969, 237, -700, -1610, -3150, -384, 322, -213
98514, 72, 969, 240, -840, -560, -3640, -370, 319, -196
98515, 62, 970, 238, -840, 0, -3920, -384, 315, -204
98516, 57, 970, 237, -840, -70, -4270, -379, 330, -192
98517, 60, 967, 238, -910, -280, -4550, -375, 321, -214
98518, 64, 966, 240, -910, -210, -4900, -379, 316, -198
98519, 73, 966, 241, -980, 280, -5320, -381, 322, -193
98520, 74, 966, 241, -980, 980, -5670, -379, 324, -199
98521, 70, 966, 241, -980, 1470, -5880, -375, 322, -196
98522, 61, 967, 240, -1120, 1680, -6090, -378, 319, -208
98523, 52, 966, 246, -1120, 2100, -6580, -378, 319, -208
98524, 48, 962, 246, -1120, 2380, -6790, -379, 316, -204
98525, 46, 963, 246, -1120, 2660, -6930, -375, 324, -208
98526, 48, 965, 246, -980, 2800, -7070, -373, 316, -205
98527, 53, 968, 248, -1050, 3080, -7280, -378, 316, -205
98528, 65, 965, 249, -980, 4760, -7630, -376, 318, -216
98529, 60, 966, 248, -980, 5530, -7770, -370, 324, -205
98530, 51, 968, 245, -1120, 5950, -7980, -376, 321, -208
98531, 41, 968, 244, -1190, 5740, -8330, -375, 319, -208
98532, 33, 968, 242, -1260, 4200, -9100, -372, 315, -205
98533, 20, 971, 238, -1540, 3360, -9380, -372, 310, -210
98534, 16, 973, 238, -1680, 2380, -9660, -372, 327, -202
98535, 14, 973, 237, -1750, 1610, -9940, -372, 316, -211
98536, 14, 973, 233, -1960, 980, -10150, -373, 318, -199
98537, 20, 970, 231, -2100, 280, -10570, -369, 315, -201
98538, 23, 968, 230, -2100, 350, -10640, -373, 318, -216
98539, 25, 967, 232, -2030, 630, -10780, -378, 307, -210
98540, 26, 969, 233, -2030, 1190, -10850, -367, 303, -210
98541, 29, 968, 233, -1960, 1820, -10850, -375, 313, -202
98542, 23, 967, 237, -1820, 3430, -10990, -369, 307, -207
98543, 19, 968, 240, -1820, 3850, -11130, -367, 300, -204
98544, 16, 967, 244, -1890, 4130, -11200, -363, 309, -210
98545, 11, 966, 246, -1890, 4480, -11270, -369, 304, -213
98546, 8, 964, 249, -1890, 5180, -11480, -358, 315, -210
98547, 2, 962, 253, -1820, 5810, -11550, -360, 313, -210
98548, -11, 963, 254, -1750, 5670, -11620, -367, 306, -208
98549, -16, 966, 255, -1820, 5110, -11620, -361, 301, -214
98550, -24, 968, 256, -1960, 4620, -11760, -357, 310, -207
98551, -27, 963, 256, -2030, 3850, -11970, -354, 318, -207
98552, -26, 966, 253, -2100, 3360, -12040, -357, 307, -213
98553, -24, 967, 254, -2100, 2870, -12040, -357, 304, -210
98554, -28, 967, 250, -2170, 2730, -12040, -367, 304, -202
98555, -36, 965, 249, -2170, 2380, -12110, -360, 307, -211
98556, -40, 970, 246, -2310, 1400, -12110, -358, 304, -210
98557, -38, 967, 247, -2310, 1050, -12180, -358, 306, -210
98558, -36, 965, 246, -2380, 700, -12180, -361, 300, -222
98559, -36, 965, 245, -2380, 630, -12180, -351, 297, -222
98560, -35, 966, 245, -2310, 840, -12040, -357, 289, -226
98561, -44, 966, 244, -2240, 1120, -11900, -355, 306, -211
98562, -45, 966, 246, -2170, 1330, -11830, -363, 309, -205
98563, -47, 968, 247, -2170, 1680, -11620, -348, 303, -216
98564, -51, 966, 248, -2240, 1890, -11550, -363, 292, -216
98565, -62, 964, 250, -2170, 2170, -11270, -360, 303, -213
98566, -69, 965, 253, -2100, 2100, -11130, -355, 295, -217
98567, -76, 966, 256, -2100, 1820, -10920, -349, 298, -216
98568, -78, 964, 258, -1960, 1610, -10710, -355, 297, -207
98569, -86, 965, 260, -1960, 1260, -10570, -357, 298, -220
98570, -93, 965, 265, -1890, 630, -9870, -346, 298, -213
98571, -93, 963, 266, -1820, 840, -9450, -342, 297, -213
98572, -97, 962, 266, -1820, 1260, -8960, -357, 292, -207
98573, -100, 961, 267, -1680, 2030, -8330, -348, 298, -220
98574, -113, 961, 269, -1330, 3080, -6860, -349, 295, -216
98575, -130, 959, 272, -1120, 3290, -6090, -349, 297, -220
98576, -135, 961, 273, -910, 3570, -5320, -348, 289, -223
98577, -141, 963, 273, -630, 3710, -4620, -349, 294, -222
98578, -139, 962, 274, -490, 3710, -3780, -346, 289, -211
98579, -137, 960, 274, -280, 3430, -2240, -357, 297, -219
98580, -136, 960, 274, -140, 3150, -1610, -351, 297, -216
98581, -133, 960, 274, 0, 2940, -910, -349, 291, -220
98582, -128, 960, 274, 140, 2660, -350, -349, 291, -219
98583, -121, 960, 273, 140, 2240, 70, -342, 298, -219
98584, -100, 963, 268, 280, 1540, 840, -351, 294, -223
98585, -88, 963, 266, 350, 1260, 1050, -348, 288, -219
98586, -76, 961, 262, 490, 1120, 1190, -351, 298, -228
98587, -67, 962, 260, 350, 910, 1190, -357, 292, -213
98588, -61, 974, 244, 140, -700, 840, -354, 297, -213
98589, -24, 965, 259, 0, -770, 630, -343, 292, -216
98590, -32, 961, 253, 140, 700, 560, -346, 288, -219
98591, -55, 965, 249, 140, 910, 210, -354, 292, -216
98592, -59, 969, 238, 0, -980, -70, -345, 294, -213
98593, -59, 968, 244, -280, -1120, -420, -334, 291, -216
98594, -51, 959, 248, -210, -560, -490, -346, 298, -208
98595, -62, 964, 246, -140, -140, -490, -354, 292, -211
98596, -66, 968, 245, -140, -560, -490, -349, 289, -202
98597, -67, 967, 251, -140, -840, -490, -336, 289, -208
98598, -75, 961, 258, 70, 70, -280, -351, 292, -216
98599, -83, 966, 259, 0, 350, -210, -348, 294, -214
98600, -82, 966, 259, 0, 0, -70, -346, 294, -213
98601, -84, 963, 263, -70, -210, 70, -342, 289, -213
98602, -87, 962, 267, 0, -420, 420, -349, 294, -214
98603, -88, 960, 268, 140, -420, 560, -346, 300, -213
98604, -89, 958, 269, 210, -630, 700, -348, 286, -207
98605, -81, 958, 269, 210, -910, 840, -345, 291, -223
98606, -71, 961, 269, 210, -840, 910, -354, 295, -213
98607, -64, 960, 268, 420, 210, 1260, -343, 294, -216
98608, -66, 960, 267, 490, 350, 1330, -349, 300, -217
98609, -73, 964, 264, 490, 420, 1330, -355, 297, -219
98610, -70, 964, 261, 350, 0, 1330, -351, 294, -216
98611, -70, 964, 258, 350, -350, 1260, -355, 292, -219
98612, -63, 966, 255, 280, -770, 1190, -346, 294, -210
98613, -64, 967, 253, 210, -700, 1190, -355, 297, -213
