Time [mS], AccX [mg],AccY [mg],AccZ [mg],GyroX [mdps],GyroY [mdps],GyroZ [mdps],MagX [mgauss],MagY [mgauss],MagZ [mgauss]
65612, -157, 955, 238, -1260, -2240, -2380, -328, 259, -294
65613, -150, 952, 239, -350, -2520, 840, -325, 256, -291
65614, -149, 955, 243, 70, -2170, 2170, -330, 259, -295
65615, -140, 956, 244, 630, -490, 2940, -325, 265, -295
65616, -138, 958, 243, 910, 420, 3500, -319, 274, -292
65617, -145, 959, 242, 1120, 910, 4270, -333, 267, -289
65618, -149, 958, 239, 1330, 980, 5320, -327, 265, -292
65619, -153, 956, 241, 1260, 770, 6860, -327, 255, -288
65620, -149, 955, 239, -560, -840, 22960, -324, 250, -292
65621, -132, 946, 239, -840, -2030, 29190, -331, 267, -282
65622, -132, 962, 237, -630, -2520, 34650, -333, 277, -291
65623, -135, 975, 240, 280, -2450, 34230, -327, 277, -283
65624, -134, 988, 247, 980, -1540, 23870, -327, 262, -291
65625, -106, 969, 250, 630, 910, 8330, -336, 288, -285
65626, -112, 969, 251, 700, 1750, 6020, -336, 276, -282
65627, -111, 965, 250, 630, 1820, 5320, -333, 277, -283
65628, -113, 963, 250, 910, 1890, 5460, -331, 280, -291
65629, -108, 961, 251, 560, 560, 3430, -336, 277, -276
65630, -99, 956, 254, 350, 140, 2380, -327, 276, -282
65631, -99, 955, 254, 350, 350, 1890, -339, 268, -285
65632, -95, 958, 254, 420, 630, 1400, -330, 274, -289
65633, -99, 960, 250, 490, 560, 1050, -328, 274, -280
65634, -99, 960, 247, 210, -630, 0, -331, 261, -283
65635, -112, 965, 245, -140, -1400, -280, -333, 277, -285
65636, -111, 964, 243, -210, -1680, -420, -327, 274, -291
65637, -102, 965, 239, -420, -1540, -490, -328, 273, -288
65638, -103, 967, 237, -140, -1120, -350, -334, 268, -285
65639, -104, 961, 233, 70, 770, 140, -336, 273, -282
65640, -106, 965, 231, 210, 1610, 140, -330, 267, -289
65641, -119, 966, 228, 350, 1890, 350, -331, 276, -292
65642, -123, 964, 227, 420, 1960, 490, -334, 273, -289
65643, -129, 970, 228, 420, 770, 420, -340, 286, -285
65644, -129, 970, 227, 280, 560, 700, -333, 279, -285
65645, -129, 968, 227, 280, 280, 770, -331, 271, -288
65646, -124, 966, 228, 210, 350, 840, -331, 276, -288
65647, -126, 968, 228, 210, 560, 910, -336, 271, -279
65648, -126, 970, 228, 140, 420, 1120, -339, 271, -286
65649, -121, 967, 227, 140, 210, 1120, -333, 276, -277
65650, -127, 968, 227, 70, -70, 1050, -327, 270, -286
65651, -118, 968, 225, 70, -420, 1050, -330, 273, -279
65652, -117, 967, 225, 0, -630, 980, -340, 279, -286
65653, -107, 964, 226, 70, -700, 980, -333, 270, -279
65654, -101, 965, 229, 140, -490, 980, -328, 274, -288
65655, -106, 967, 230, 210, -140, 980, -337, 279, -282
65656, -105, 967, 230, 210, -70, 910, -327, 277, -285
65657, -108, 966, 232, 70, -350, 630, -330, 270, -277
65658, -109, 965, 233, 140, -490, 560, -330, 277, -285
65659, -107, 965, 233, 70, -420, 560, -334, 264, -277
65660, -107, 963, 235, 70, -280, 560, -331, 271, -280
65661, -104, 963, 235, 70, -140, 490, -327, 267, -282
65662, -103, 965, 237, 280, 420, 560, -340, 283, -283
65663, -105, 964, 238, 140, 560, 560, -336, 285, -273
65664, -106, 964, 237, 140, 350, 350, -334, 276, -279
65665, -106, 964, 238, 140, 0, 280, -336, 274, -298
65666, -106, 966, 237, 0, -140, 140, -340, 279, -274
65667, -103, 967, 236, 0, -280, -140, -331, 274, -279
65668, -101, 967, 235, -70, -140, -140, -343, 273, -288
65669, -104, 966, 234, 0, 0, -210, -331, 279, -279
65670, -105, 963, 233, 0, 70, -280, -328, 270, -282
65671, -109, 964, 232, -70, 280, -420, -337, 273, -289
65672, -110, 966, 231, 0, 420, -350, -337, 276, -288
65673, -105, 966, 232, 70, 560, -350, -331, 274, -286
65674, -103, 965, 231, 140, 910, -280, -327, 279, -294
65675, -103, 964, 231, 210, 1050, -280, -342, 282, -286
65676, -113, 966, 232, 140, 910, -490, -336, 277, -285
65677, -118, 968, 231, 0, 840, -490, -324, 271, -285
65678, -116, 969, 230, 0, 420, -630, -337, 282, -285
65679, -115, 970, 231, -140, -70, -700, -331, 280, -286
65680, -111, 969, 231, -350, -140, -700, -336, 280, -282
65681, -113, 965, 233, -280, -140, -770, -331, 271, -274
65682, -118, 965, 233, -280, 0, -770, -342, 279, -276
65683, -118, 967, 233, -210, 0, -840, -328, 276, -294
65684, -119, 967, 233, -210, -70, -840, -336, 276, -280
65685, -112, 963, 233, -70, 210, -630, -333, 273, -285
65686, -109, 962, 234, 70, 560, -350, -336, 274, -279
65687, -112, 963, 233, 210, 980, -280, -334, 274, -285
65688, -115, 964, 235, 350, 980, -280, -334, 280, -286
65689, -119, 966, 234, 350, 910, -210, -337, 280, -288
65690, -124, 972, 235, 0, -210, -420, -342, 271, -288
65691, -123, 970, 234, -210, -630, -490, -328, 276, -288
65692, -120, 967, 233, -280, -840, -490, -328, 282, -280
65693, -117, 964, 232, -350, -910, -490, -337, 282, -289
65694, -113, 962, 233, -210, -210, -210, -336, 273, -291
65695, -111, 963, 233, 70, 350, -140, -342, 277, -274
65696, -113, 965, 236, 210, 770, -70, -327, 276, -282
65697, -112, 965, 234, 350, 840, 0, -331, 280, -288
65698, -118, 967, 233, 420, 910, 0, -334, 273, -282
65699, -116, 964, 235, 280, 560, 0, -333, 277, -283
65700, -117, 966, 236, 280, 420, 0, -336, 279, -280
65701, -119, 967, 235, 210, 350, -70, -336, 282, -276
65702, -122, 968, 237, 70, 350, 0, -331, 277, -288
65703, -124, 967, 237, 70, 140, 70, -334, 288, -289
65704, -127, 965, 236, 70, 140, 280, -328, 280, -291
65705, -128, 965, 236, 70, 140, 490, -330, 276, -283
65706, -128, 965, 236, 210, 140, 630, -330, 271, -285
65707, -127, 965, 235, 350, 140, 770, -334, 273, -282
65708, -124, 966, 235, 350, 210, 1050, -336, 276, -285
65709, -122, 968, 234, 350, 140, 1190, -331, 267, -294
65710, -121, 967, 233, 420, 70, 1190, -336, 276, -289
65711, -119, 966, 233, 280, 140, 1260, -343, 279, -271
65712, -116, 966, 233, 210, 70, 1260, -330, 276, -285
65713, -112, 966, 233, 280, 140, 1400, -333, 276, -274
65714, -114, 965, 233, 280, 210, 1400, -334, 274, -288
65715, -113, 964, 232, 350, 420, 1470, -327, 279, -276
65716, -114, 964, 233, 420, 490, 1540, -334, 264, -277
65717, -116, 965, 233, 420, 560, 1540, -327, 271, -274
65718, -116, 967, 233, 490, 420, 1610, -337, 285, -280
65719, -116, 967, 234, 560, 280, 1680, -345, 270, -273
65720, -115, 968, 235, 420, 280, 1680, -333, 270, -273
65721, -115, 967, 235, 350, 350, 1680, -328, 282, -280
65722, -114, 967, 234, 350, 280, 1820, -328, 277, -279
65723, -112, 966, 235, 420, 280, 1890, -336, 274, -282
65724, -112, 966, 234, 420, 280, 1890, -333, 276, -295
65725, -109, 965, 233, 420, 350, 1960, -345, 273, -285
65726, -109, 966, 232, 490, 350, 1960, -337, 280, -283
65727, -111, 967, 232, 560, 350, 1960, -330, 274, -280
65728, -106, 967, 232, 490, 280, 1960, -327, 280, -277
65729, -106, 968, 232, 350, 280, 1890, -333, 277, -279
65730, -103, 969, 232, 350, 280, 1890, -342, 270, -291
65731, -103, 968, 233, 280, 490, 1820, -336, 282, -277
65732, -106, 966, 229, 350, 420, 1820, -328, 276, -283
65733, -103, 964, 229, 420, 420, 1680, -330, 283, -279
65734, -109, 966, 230, 350, 140, 1680, -339, 273, -285
65735, -104, 970, 232, 280, -70, 1610, -331, 282, -286
65736, -110, 970, 232, 280, -560, 1470, -330, 277, -286
65737, -100, 969, 231, 350, -420, 1470, -337, 282, -285
65738, -101, 962, 230, 140, -280, 1400, -333, 277, -276
65739, -99, 974, 232, 280, -280, 1400, -340, 273, -288
65740, -105, 964, 230, 0, -210, 1400, -345, 277, -280
65741, -106, 967, 231, 210, -490, 1330, -337, 285, -280
65742, -105, 967, 230, 280, -420, 1330, -334, 277, -277
65743, -102, 966, 230, 210, -350, 1330, -336, 282, -282
65744, -99, 965, 230, 280, -420, 1330, -330, 277, -279
65745, -99, 966, 230, 420, -350, 1330, -333, 271, -273
65746, -103, 969, 231, 350, -280, 1330, -346, 277, -276
65747, -105, 970, 230, 280, -420, 1260, -331, 271, -280
65748, -105, 970, 229, 140, -560, 1190, -346, 280, -289
65749, -104, 970, 230, 70, -770, 1120, -334, 273, -270
65750, -97, 967, 229, 0, -910, 1120, -340, 286, -268
65751, -95, 966, 230, 0, -700, 1050, -337, 276, -279
65752, -93, 966, 230, 70, -280, 1120, -337, 279, -280
65753, -94, 967, 229, 70, 0, 1050, -328, 274, -282
65754, -94, 968, 229, 210, 140, 1050, -334, 286, -271
65755, -95, 966, 230, 210, -140, 840, -336, 273, -277
65756, -94, 966, 230, 210, -280, 770, -340, 271, -279
65757, -92, 966, 231, 70, -210, 700, -333, 277, -283
65758, -92, 968, 230, 70, -280, 560, -342, 277, -283
65759, -90, 968, 230, 0, -350, 490, -337, 271, -277
65760, -90, 968, 229, -140, -490, 210, -336, 279, -282
65761, -89, 967, 229, -280, -490, 70, -324, 271, -273
65762, -85, 967, 232, -490, -420, -140, -346, 274, -286
65763, -82, 965, 233, -630, -350, -210, -337, 276, -279
65764, -88, 965, 237, -700, -280, -560, -337, 279, -283
65765, -88, 962, 236, -840, -350, -770, -345, 282, -277
65766, -92, 963, 236, -560, -70, -840, -340, 285, -279
65767, -93, 967, 241, -350, -280, -980, -345, 274, -282
65768, -91, 964, 241, -350, -630, -1120, -346, 282, -280
65769, -89, 967, 242, -770, -980, -1540, -330, 276, -288
65770, -85, 970, 243, -980, -700, -1820, -339, 273, -289
65771, -80, 969, 243, -1190, -210, -2310, -336, 271, -282
65772, -55, 961, 249, -1260, 2170, -3150, -342, 286, -283
65773, -78, 957, 226, -840, 3080, -2660, -334, 276, -274
65774, -85, 962, 232, -420, 1960, -2660, -342, 274, -280
65775, -89, 965, 230, -350, 1820, -2800, -336, 280, -291
65776, -90, 968, 230, -490, 1400, -3080, -336, 271, -280
65777, -87, 972, 227, -700, 840, -3360, -342, 280, -283
65778, -77, 963, 225, -840, 560, -3780, -342, 289, -292
65779, -76, 960, 224, -770, 980, -3990, -343, 276, -286
65780, -79, 963, 223, -770, 1400, -4200, -336, 286, -277
65781, -81, 967, 222, -770, 1610, -4480, -328, 270, -286
65782, -81, 969, 221, -840, 1610, -4760, -327, 277, -286
65783, -74, 967, 218, -980, 1260, -5460, -334, 274, -288
65784, -69, 965, 217, -1050, 1330, -5950, -333, 274, -285
65785, -64, 964, 215, -1120, 1470, -6300, -327, 273, -285
65786, -60, 963, 214, -1260, 1610, -6790, -325, 282, -285
65787, -55, 963, 214, -1330, 1750, -8050, -337, 280, -285
65788, -48, 966, 211, -1610, 1890, -8680, -337, 282, -288
65789, -44, 964, 210, -1750, 2030, -9450, -339, 279, -289
65790, -41, 962, 211, -1890, 2170, -10290, -327, 271, -285
65791, -38, 960, 210, -1960, 2240, -11130, -328, 274, -289
65792, -35, 960, 213, -2380, 2660, -12880, -325, 262, -280
65793, -39, 958, 216, -2450, 2940, -13720, -325, 268, -295
65794, -42, 966, 210, -2520, 3500, -14560, -319, 268, -288
65795, -62, 977, 239, -3220, 3290, -15470, -328, 276, -289
65796, -55, 993, 146, -3990, 3500, -15960, -330, 265, -292
65797, -155, 969, 175, -3780, 3920, -16660, -331, 267, -288
65798, -170, 915, 210, -3500, 4060, -16800, -324, 264, -295
65799, -160, 905, 221, -3010, 3150, -15890, -327, 279, -286
65800, -139, 948, 203, -2520, 2380, -15540, -318, 274, -283
65801, -163, 990, 183, -2030, 3010, -15120, -322, 265, -295
65802, -154, 978, 236, -2450, 4060, -15260, -322, 268, -297
65803, -153, 971, 229, -2940, 4550, -15540, -325, 268, -291
65804, -179, 970, 223, -3150, 4060, -15400, -327, 255, -295
65805, -232, 967, 236, -3360, 4830, -14980, -324, 264, -292
65806, -381, 1013, 219, -3150, 4900, -12040, -316, 265, -294
65807, -303, 984, 205, -2870, 3360, -10080, -322, 259, -289
65808, -264, 919, 208, -2450, 1960, -8470, -322, 255, -298
65809, -155, 863, 220, -1610, 630, -7000, -327, 253, -295
65810, -193, 884, 231, -420, 2240, -6650, -316, 259, -300
65811, -227, 980, 243, 1050, 7000, -6930, -321, 253, -295
65812, -194, 1011, 244, 560, 6230, -7000, -318, 250, -291
65813, -226, 1032, 250, -560, 2940, -6790, -318, 270, -294
65814, -199, 1002, 266, -1750, -420, -6510, -321, 256, -295
65815, -222, 958, 280, -2450, -3640, -5950, -310, 256, -295
65816, -233, 934, 307, -1960, -2590, -5670, -318, 256, -297
65817, -226, 946, 317, -1400, -1050, -5390, -324, 265, -289
65818, -221, 951, 314, -910, -280, -4690, -306, 252, -295
65819, -217, 945, 309, -560, 350, -3780, -316, 250, -294
65820, -246, 948, 299, -280, 1890, -1260, -318, 240, -303
65821, -263, 946, 297, -140, 3220, -70, -319, 252, -292
65822, -280, 941, 299, 70, 4480, 840, -324, 244, -295
65823, -279, 943, 294, 280, 4830, 1820, -315, 261, -285
65824, -294, 953, 290, 560, 4200, 2730, -321, 252, -295
65825, -323, 950, 287, 1120, 910, 5040, -313, 268, -285
65826, -327, 946, 286, 1330, -630, 6300, -313, 264, -306
65827, -335, 954, 278, 1400, -1960, 7630, -307, 237, -286
65828, -319, 962, 274, 1470, -2940, 8960, -312, 255, -294
65829, -314, 966, 276, 1540, -4200, 11830, -316, 264, -289
65830, -294, 957, 285, 1820, -4270, 13230, -319, 262, -294
65831, -241, 930, 311, 2520, -4620, 14210, -306, 264, -288
65832, -203, 905, 331, 3500, -6440, 14210, -319, 255, -289
65833, -175, 883, 342, 3850, -9380, 14070, -324, 264, -294
65834, -154, 1036, 254, 2660, -5950, 14490, -318, 261, -292
65835, -89, 1018, 263, 1820, -4830, 15120, -322, 252, -295
65836, -135, 923, 289, 1540, -3010, 15400, -328, 264, -288
65837, -109, 864, 302, 1960, -840, 15540, -316, 264, -291
65838, -172, 925, 288, 2590, 1680, 15820, -327, 256, -294
65839, -203, 992, 241, 3990, 3570, 17080, -319, 267, -282
65840, -210, 928, 247, 4340, 3220, 17780, -327, 265, -294
65841, -209, 916, 239, 4410, 2170, 18340, -336, 270, -297
65842, -220, 968, 225, 4340, 770, 18760, -330, 261, -294
65843, -206, 997, 225, 3850, -2590, 19460, -331, 270, -283
65844, -174, 953, 233, 3500, -3920, 19670, -330, 267, -288
65845, -166, 966, 230, 3220, -5040, 19880, -328, 261, -285
65846, -152, 988, 223, 3150, -5600, 20300, -334, 255, -286
65847, -153, 977, 224, 3360, -5320, 20650, -331, 277, -280
65848, -139, 932, 223, 3920, -4200, 21490, -334, 280, -286
65849, -134, 972, 214, 4060, -3990, 21840, -339, 277, -283
65850, -141, 1001, 210, 4060, -3780, 22260, -327, 274, -291
65851, -136, 986, 211, 4060, -3710, 22680, -343, 277, -271
65852, -134, 956, 216, 4060, -3710, 22960, -337, 283, -289
65853, -124, 969, 213, 4200, -4200, 23520, -339, 279, -295
65854, -119, 967, 213, 4270, -4550, 23800, -337, 283, -276
65855, -114, 951, 218, 4340, -4900, 24080, -334, 283, -277
65856, -107, 958, 216, 4480, -4970, 24220, -342, 286, -274
65857, -104, 1006, 201, 4130, -4900, 24780, -337, 292, -273
65858, -108, 1001, 197, 3990, -4550, 25340, -351, 289, -283
65859, -119, 987, 192, 3780, -3710, 25970, -342, 289, -270
65860, -129, 989, 184, 3850, -2730, 26950, -346, 289, -283
65861, -146, 996, 178, 4060, -1680, 28000, -351, 291, -282
65862, -162, 934, 187, 5110, -280, 30520, -349, 294, -268
65863, -157, 922, 191, 5810, 350, 31710, -351, 294, -264
65864, -145, 917, 194, 6650, 910, 32900, -346, 294, -277
65865, -121, 907, 194, 7280, 1190, 33810, -355, 294, -279
65866, -105, 922, 196, 7700, 210, 34300, -348, 292, -270
65867, -65, 987, 224, 7070, -5600, 34160, -355, 289, -265
65868, -19, 1000, 237, 6300, -9590, 33670, -360, 309, -274
65869, 24, 988, 248, 5460, -12670, 32620, -364, 303, -259
65870, 83, 961, 254, 4760, -15120, 31430, -370, 306, -277
65871, 191, 947, 266, 3990, -15050, 28420, -364, 307, -268
65872, 210, 984, 267, 3710, -12530, 26880, -369, 306, -268
65873, 238, 992, 264, 3570, -9170, 25480, -367, 306, -270
65874, 220, 957, 257, 3290, -5530, 24080, -373, 310, -262
65875, 218, 903, 246, 3220, -2730, 22610, -366, 321, -262
65876, 200, 878, 236, 3990, 490, 19040, -373, 321, -264
65877, 213, 906, 238, 4340, 1470, 17080, -372, 313, -267
65878, 252, 941, 237, 4270, 2590, 15050, -376, 313, -264
65879, 271, 974, 233, 3990, 3850, 12880, -373, 316, -259
65880, 286, 989, 227, 3570, 4970, 10570, -378, 312, -264
65881, 270, 950, 221, 2310, 6440, 5600, -381, 321, -261
65882, 266, 935, 217, 1610, 7140, 3150, -378, 319, -258
65883, 261, 953, 208, 1190, 8120, 770, -378, 315, -258
65884, 256, 972, 203, 770, 9240, -1470, -376, 321, -258
65885, 234, 973, 199, 560, 13020, -5250, -372, 312, -250
65886, 206, 972, 194, 630, 15260, -6860, -375, 312, -261
65887, 174, 967, 185, 840, 17360, -8120, -379, 313, -250
65888, 142, 959, 178, 980, 19040, -9170, -366, 315, -255
65889, 107, 954, 175, 1050, 20160, -10150, -364, 313, -250
65890, 46, 978, 177, 770, 19320, -11620, -364, 310, -255
65891, 19, 993, 181, 630, 17780, -12110, -366, 309, -262
65892, -7, 1000, 185, 280, 15680, -12460, -363, 313, -252
65893, -29, 998, 191, -70, 13510, -12740, -367, 321, -244
65894, -42, 992, 191, -350, 11550, -12600, -364, 310, -252
65895, -53, 1000, 190, -420, 10500, -11620, -367, 312, -250
65896, -64, 1001, 190, -350, 10920, -10780, -364, 301, -243
65897, -69, 991, 190, -280, 11620, -9730, -363, 303, -252
65898, -85, 986, 192, 0, 12530, -8610, -360, 303, -259
65899, -113, 985, 190, 700, 14280, -6160, -364, 306, -246
65900, -123, 987, 191, 1120, 14980, -4690, -369, 316, -250
65901, -145, 1003, 187, 1400, 15190, -3290, -372, 315, -247
65902, -154, 1006, 192, 1540, 14350, -1890, -361, 303, -247
65903, -157, 1008, 188, 1540, 12390, -350, -361, 307, -253
65904, -160, 991, 180, 1120, 6930, 1820, -364, 301, -255
65905, -154, 987, 180, 840, 4480, 2730, -361, 310, -247
65906, -117, 994, 174, 490, 2100, 3710, -355, 312, -252
65907, -103, 1000, 172, 280, 280, 4480, -370, 315, -246
65908, -71, 997, 172, 140, -2100, 5810, -360, 310, -256
65909, -41, 985, 174, 210, -2450, 6230, -364, 310, -246
65910, -29, 976, 177, 350, -2590, 6580, -367, 309, -252
65911, -7, 966, 181, 420, -2520, 6790, -367, 312, -240
65912, 0, 969, 185, 560, -2240, 6930, -364, 312, -246
65913, 15, 998, 186, 490, -1680, 7000, -363, 304, -235
65914, 15, 998, 190, 350, -2030, 6790, -363, 310, -256
65915, 10, 988, 191, 0, -3220, 6440, -366, 310, -246
65916, 20, 963, 191, -280, -4550, 6020, -361, 309, -241
65917, 38, 959, 190, -350, -5600, 5460, -358, 315, -240
65918, 70, 967, 196, -280, -6650, 4130, -369, 316, -250
65919, 80, 969, 201, -210, -6230, 3570, -366, 304, -243
65920, 75, 979, 203, -210, -5180, 3080, -378, 318, -247
65921, 80, 989, 198, -210, -3780, 2730, -366, 309, -252
65922, 69, 989, 195, -350, -1330, 2100, -366, 309, -253
65923, 44, 975, 195, -420, -630, 1820, -369, 304, -258
65924, 35, 977, 195, -350, -420, 1540, -375, 313, -259
65925, 21, 976, 197, -280, -560, 1330, -360, 316, -244
65926, 23, 972, 199, -210, -910, 1120, -366, 310, -246
65927, 23, 972, 199, -70, -1960, 630, -364, 310, -252
65928, 19, 982, 195, -210, -2380, 490, -363, 309, -253
65929, 23, 981, 197, -350, -2660, 420, -357, 310, -243
65930, 29, 968, 200, -420, -2590, 210, -363, 312, -253
65931, 33, 969, 206, -560, -2380, 70, -360, 312, -247
65932, 32, 977, 208, -350, -1540, 70, -364, 309, -250
65933, 22, 974, 209, -210, -980, 70, -367, 309, -246
65934, 29, 972, 211, -140, -560, 140, -366, 306, -250
65935, 22, 975, 211, 70, 350, 70, -363, 315, -247
65936, 36, 976, 208, 210, 1680, 0, -373, 316, -250
65937, 42, 968, 209, 210, 2240, 0, -369, 306, -252
65938, 35, 968, 210, 140, 2660, -210, -361, 306, -246
65939, 41, 970, 210, 140, 2730, -490, -361, 313, -253
65940, 31, 977, 209, 70, 2310, -770, -373, 307, -249
65941, 23, 986, 204, -140, 1120, -1400, -366, 303, -249
65942, 25, 988, 200, -420, 840, -1610, -369, 309, -247
65943, 20, 987, 197, -630, 700, -1680, -373, 303, -246
65944, 23, 977, 195, -560, 910, -1750, -367, 312, -250
65945, 17, 968, 196, -490, 1260, -1680, -372, 312, -256
65946, 11, 972, 203, -70, 1890, -1610, -369, 316, -250
65947, 11, 976, 206, 70, 2240, -1540, -364, 309, -252
65948, 10, 976, 207, 210, 2310, -1540, -366, 310, -246
65949, 8, 978, 207, 210, 2380, -1540, -364, 315, -250
65950, 5, 984, 206, 70, 2310, -1330, -363, 315, -258
65951, 3, 982, 207, -140, 2380, -1190, -363, 307, -261
65952, 5, 975, 208, -210, 2520, -1120, -366, 306, -261
65953, 4, 973, 213, -210, 2660, -980, -369, 310, -247
65954, 0, 970, 217, -70, 2870, -910, -361, 315, -250
65955, -10, 975, 222, 280, 3080, -490, -373, 313, -250
65956, -14, 979, 222, 420, 3080, -210, -358, 319, -246
65957, -22, 985, 222, 350, 3150, 140, -360, 312, -244
65958, -27, 988, 221, 420, 3150, 490, -372, 315, -250
65959, -34, 985, 221, 350, 3220, 980, -361, 319, -246
65960, -39, 975, 220, 210, 2870, 1890, -363, 310, -252
65961, -38, 972, 222, 280, 2520, 2310, -357, 312, -246
65962, -39, 969, 225, 490, 2030, 2730, -361, 306, -249
65963, -34, 968, 229, 700, 1400, 3010, -372, 307, -255
65964, -31, 979, 232, 770, 210, 3640, -358, 310, -243
65965, -18, 978, 233, 770, -280, 3850, -361, 307, -247
65966, -9, 974, 235, 700, -630, 4130, -366, 307, -240
65967, -2, 972, 238, 630, -840, 4270, -364, 315, -237
65968, 4, 970, 241, 490, -770, 4340, -364, 324, -253
65969, 14, 966, 248, 560, -770, 4480, -375, 310, -261
65970, 17, 964, 251, 630, -910, 4480, -370, 312, -250
65971, 16, 967, 251, 770, -770, 4480, -361, 318, -249
65972, 15, 972, 250, 770, -770, 4550, -373, 316, -256
65973, 17, 971, 247, 700, -840, 4480, -373, 307, -249
65974, 28, 960, 243, 630, -1050, 4340, -366, 315, -241
65975, 41, 958, 240, 490, -1400, 3920, -370, 310, -243
65976, 61, 957, 239, 560, -1890, 3360, -370, 312, -234
65977, 84, 962, 235, 490, -2730, 2590, -372, 321, -240
65978, 115, 986, 222, 0, -2450, 1260, -363, 318, -250
65979, 117, 985, 215, -70, -1120, 700, -373, 315, -246
65980, 111, 970, 210, -140, 350, 70, -363, 307, -256
65981, 100, 957, 205, -280, 1330, -700, -378, 319, -247
65982, 94, 956, 201, -280, 1540, -1540, -375, 319, -246
65983, 91, 970, 200, -140, 630, -3360, -370, 315, -258
65984, 96, 972, 200, -70, 420, -4130, -370, 316, -250
65985, 100, 976, 196, -140, 630, -4970, -373, 319, -244
65986, 102, 980, 191, -280, 980, -5810, -361, 312, -246
65987, 102, 979, 185, -490, 1540, -6580, -360, 315, -249
65988, 94, 970, 183, -1050, 1960, -8120, -361, 307, -240
65989, 93, 971, 184, -1120, 2100, -9030, -367, 319, -240
65990, 93, 973, 183, -1120, 2310, -9870, -370, 313, -246
65991, 93, 971, 183, -1050, 2520, -10710, -372, 312, -244
65992, 92, 970, 178, -1050, 2800, -12390, -361, 306, -244
65993, 90, 974, 176, -1120, 3080, -13230, -364, 313, -241
65994, 89, 977, 172, -1330, 3290, -14140, -369, 309, -244
65995, 86, 976, 173, -1540, 3500, -14980, -358, 309, -246
65996, 85, 975, 174, -1750, 3710, -15890, -360, 301, -249
65997, 86, 971, 176, -2030, 4060, -17710, -366, 315, -247
65998, 85, 967, 177, -2030, 4270, -18690, -357, 303, -252
65999, 82, 964, 178, -1960, 4550, -19600, -363, 307, -243
66000, -29, 1006, 175, -2170, 3430, -20720, -360, 304, -243
66001, -119, 1035, 175, -3850, -8260, -21840, -357, 297, -247
66002, -14, 943, 192, -3360, 1260, -24360, -348, 306, -259
66003, 349, 992, 167, -2660, 6160, -24430, -360, 306, -250
66004, 56, 998, 170, -2170, 12250, -25060, -346, 294, -249
66005, 237, 928, 190, -2100, 13440, -25200, -352, 291, -261
66006, 593, 1046, 186, -1330, 22540, -27440, -352, 289, -261
66007, 150, 1058, 161, 490, 50050, -25410, -352, 295, -247
66008, 392, 907, 142, 3010, 72100, -24220, -346, 300, -252
66009, -17, 836, 126, 6370, 89880, -21770, -343, 297, -243
66010, 94, 751, 175, 10080, 102620, -20580, -345, 286, -243
66011, -117, 874, 208, 14980, 99750, -22050, -337, 291, -226
66012, -427, 1047, 154, 14420, 87150, -23730, -343, 294, -229
66013, -340, 1140, 141, 10990, 63770, -26110, -340, 282, -226
66014, -732, 1209, 125, 4900, 30100, -27860, -334, 283, -226
66015, -472, 1074, 150, -2240, -7280, -32130, -333, 292, -223
66016, -200, 898, 188, -10990, -51800, -33810, -319, 288, -229
66017, -35, 865, 207, -10850, -49210, -33600, -324, 280, -229
66018, 353, 1004, 222, -7490, -21210, -29470, -328, 277, -241
66019, -50, 1123, 239, -2870, 15190, -20510, -331, 274, -231
66020, -541, 825, 273, 6020, 41650, -11200, -324, 274, -241
66021, -485, 804, 258, 8400, 42280, -9310, -324, 277, -232
66022, -604, 965, 193, 8680, 35210, -8820, -324, 280, -225
66023, -464, 1069, 173, 6440, 21000, -8260, -328, 283, -220
66024, -491, 1089, 167, 2590, 3780, -7630, -319, 277, -223
66025, -399, 1039, 227, -5740, -30940, -6650, -322, 264, -229
66026, -256, 1026, 261, -7560, -38570, -6440, -322, 277, -231
66027, -183, 976, 281, -6930, -36260, -5810, -330, 274, -247
66028, -102, 898, 299, -4830, -28420, -4270, -318, 277, -235
66029, -89, 866, 307, 210, -9870, 560, -321, 276, -243
66030, -174, 975, 282, 1960, -1820, 2800, -330, 274, -249
66031, -252, 997, 269, 2590, 2310, 4620, -324, 289, -240
66032, -339, 992, 262, 2030, 1890, 5880, -321, 273, -238
66033, -314, 996, 252, 700, -2100, 6790, -327, 283, -244
66034, -188, 987, 245, -1330, -8330, 8610, -327, 276, -241
66035, -152, 952, 253, -1330, -8610, 9520, -328, 279, -229
66036, -132, 934, 263, -840, -7350, 10080, -333, 277, -238
66037, -129, 949, 262, 0, -5530, 10710, -327, 280, -241
66038, -145, 974, 253, 910, -3780, 11270, -327, 279, -243
66039, -177, 961, 229, 1400, -2940, 12110, -330, 285, -241
66040, -203, 959, 221, 910, -6090, 12320, -327, 283, -235
66041, -179, 980, 211, 0, -10710, 12320, -322, 286, -243
66042, -173, 1000, 208, -910, -14420, 12320, -331, 282, -240
66043, -141, 1001, 213, -2100, -18060, 12320, -336, 285, -238
66044, -78, 969, 226, -1960, -17290, 12460, -336, 289, -235
66045, -42, 956, 224, -1330, -14490, 12670, -328, 277, -241
66046, -23, 947, 223, -420, -10010, 12880, -337, 282, -240
66047, -23, 943, 221, 560, -5600, 13090, -331, 283, -247
66048, -50, 961, 214, 1610, -1330, 13020, -334, 289, -250
66049, -68, 981, 208, 1330, -2030, 12670, -337, 286, -244
66050, -78, 995, 203, 770, -3570, 12250, -340, 283, -249
66051, -85, 991, 205, 210, -5740, 11690, -337, 288, -241
66052, -92, 980, 210, -420, -7910, 11130, -336, 282, -247
66053, -74, 966, 216, -980, -11550, 10360, -339, 292, -241
66054, -64, 961, 222, -910, -12040, 10150, -340, 289, -246
66055, -57, 956, 223, -560, -12390, 9870, -342, 288, -243
66056, -59, 951, 224, -420, -12600, 9520, -349, 292, -255
66057, -53, 958, 221, -420, -14420, 8680, -345, 291, -244
66058, -54, 975, 218, -700, -15890, 8050, -339, 303, -237
66059, -55, 974, 220, -1190, -18200, 7490, -343, 298, -249
66060, -48, 979, 220, -1540, -20510, 6720, -339, 286, -243
66061, -29, 987, 217, -1820, -22610, 5880, -348, 292, -250
66062, -5, 963, 218, -2030, -24010, 4620, -342, 294, -241
66063, 0, 950, 219, -1960, -24290, 3990, -340, 294, -253
66064, 7, 953, 220, -2030, -24010, 3220, -352, 301, -246
66065, 29, 964, 219, -2030, -23170, 2590, -339, 297, -253
66066, 39, 970, 219, -1890, -21350, 1960, -349, 300, -264
66067, 59, 966, 224, -1540, -16380, 770, -349, 300, -258
66068, 69, 967, 227, -1260, -13160, 280, -349, 298, -252
66069, 70, 965, 227, -910, -9940, -210, -351, 294, -256
66070, 67, 963, 230, -560, -6370, -630, -348, 303, -264
66071, 51, 961, 231, 0, -910, -1470, -348, 298, -256
66072, 10, 965, 226, 140, 630, -1890, -345, 307, -256
66073, -6, 967, 225, 140, 1820, -2380, -355, 300, -265
66074, -18, 966, 227, 140, 2380, -2730, -346, 303, -252
66075, -24, 963, 227, 70, 2590, -3080, -346, 300, -258
66076, -29, 967, 237, 210, 2520, -3570, -349, 294, -262
66077, -35, 967, 239, 420, 2870, -3710, -348, 295, -261
66078, -52, 964, 244, 490, 3080, -3780, -352, 298, -264
66079, -63, 960, 246, 490, 2730, -3990, -346, 286, -253
66080, -66, 959, 247, 560, 2310, -4060, -345, 298, -249
66081, -53, 962, 252, 560, 2660, -4060, -345, 294, -253
66082, -48, 963, 252, 630, 3220, -4060, -348, 292, -262
66083, -48, 964, 258, 560, 3430, -4060, -346, 297, -255
66084, -49, 960, 260, 560, 3920, -3920, -349, 300, -249
66085, -54, 954, 266, 910, 6090, -3640, -343, 292, -253
66086, -61, 954, 263, 1050, 7070, -3500, -339, 289, -255
66087, -71, 956, 265, 1190, 7770, -3360, -351, 309, -250
66088, -71, 957, 266, 1400, 8400, -3080, -348, 303, -259
66089, -69, 956, 272, 1610, 9170, -2730, -348, 307, -252
66090, -63, 957, 277, 2100, 11830, -2170, -346, 292, -240
66091, -58, 953, 272, 2310, 13370, -1820, -342, 303, -238
66092, -60, 946, 271, 2520, 14770, -1540, -348, 295, -249
66093, -67, 945, 269, 2800, 15680, -1330, -342, 301, -250
66094, -67, 948, 273, 2940, 16380, -1050, -348, 300, -249
66095, -56, 945, 278, 3290, 19040, -420, -342, 298, -246
66096, -46, 942, 279, 3710, 21140, -70, -351, 294, -241
66097, -34, 946, 275, 4270, 23800, 280, -343, 303, -246
66098, -36, 956, 278, 4830, 26880, 700, -351, 294, -238
66099, -69, 945, 274, 5600, 30800, 1540, -346, 298, -234
66100, -74, 950, 270, 5670, 31500, 1820, -340, 301, -237
66101, -65, 970, 259, 5880, 32340, 2030, -337, 295, -232
66102, -58, 978, 257, 6090, 33460, 2240, -340, 303, -234
66103, -55, 963, 258, 6230, 34650, 2590, -342, 303, -223
66104, -73, 981, 238, 6580, 36260, 3220, -342, 292, -223
66105, -84, 1002, 226, 6440, 35910, 3290, -340, 297, -223
66106, -95, 1005, 215, 6230, 34930, 3220, -343, 288, -228
66107, -104, 997, 200, 5950, 33530, 3080, -337, 298, -217
66108, -94, 992, 193, 5740, 32200, 3010, -345, 301, -213
66109, -46, 1000, 188, 5320, 31080, 3010, -340, 292, -213
66110, -45, 1002, 179, 5320, 31430, 2940, -345, 292, -207
66111, -46, 1010, 170, 5250, 31640, 2800, -343, 303, -205
66112, -46, 1031, 167, 5180, 32130, 2730, -336, 292, -210
66113, -40, 1048, 157, 4550, 33460, 2380, -336, 285, -195
66114, -37, 1037, 154, 3990, 33180, 2030, -336, 298, -202
66115, -41, 1021, 152, 3430, 32690, 1680, -337, 295, -201
66116, -33, 999, 150, 2940, 32060, 1330, -345, 297, -201
66117, -27, 977, 148, 2800, 32060, 1050, -342, 295, -195
66118, -34, 955, 147, 3220, 32970, 770, -345, 306, -202
66119, -49, 959, 146, 3640, 33460, 560, -340, 301, -184
66120, -49, 970, 146, 4060, 33950, 350, -336, 298, -186
66121, -52, 977, 144, 4200, 34580, 210, -334, 300, -184
66122, -53, 984, 136, 4340, 35000, -140, -336, 303, -180
66123, -38, 1010, 127, 4130, 34650, -1050, -333, 295, -180
66124, -31, 1009, 130, 3780, 34300, -1540, -342, 303, -177
66125, -29, 996, 129, 3500, 33810, -2030, -342, 304, -175
66126, -31, 984, 127, 3220, 33250, -2450, -330, 294, -184
66127, -68, 982, 121, 3010, 31500, -3080, -337, 289, -174
66128, -92, 986, 117, 2940, 29960, -3430, -328, 297, -175
66129, -106, 985, 120, 2660, 28210, -3640, -337, 292, -178
66130, -112, 990, 115, 2590, 26740, -3850, -333, 294, -168
66131, -116, 995, 111, 2660, 25620, -3920, -334, 297, -166
66132, -119, 994, 107, 2590, 23870, -3850, -333, 294, -165
66133, -120, 981, 104, 2450, 22750, -3780, -339, 294, -171
66134, -118, 980, 101, 2310, 21630, -3780, -336, 300, -172
66135, -108, 986, 98, 2100, 20930, -3640, -342, 289, -174
66136, -97, 998, 101, 1960, 22190, -3360, -334, 295, -154
66137, -100, 997, 106, 2100, 23030, -3220, -330, 295, -165
66138, -109, 991, 106, 2170, 23520, -3150, -336, 295, -159
66139, -122, 989, 102, 2100, 23030, -3080, -328, 291, -157
66140, -124, 990, 104, 1960, 21980, -2940, -334, 286, -160
66141, -137, 974, 108, 1820, 19810, -2800, -331, 289, -156
66142, -144, 971, 111, 1680, 18550, -2660, -330, 304, -153
66143, -141, 971, 114, 1540, 17500, -2450, -339, 292, -157
66144, -141, 977, 115, 1470, 16870, -2240, -333, 295, -151
66145, -138, 978, 116, 1540, 16380, -2030, -324, 286, -142
66146, -137, 974, 122, 1750, 15890, -1680, -339, 288, -147
66147, -128, 980, 126, 1680, 15050, -1610, -330, 282, -145
66148, -124, 982, 129, 1540, 14350, -1610, -340, 288, -150
66149, -121, 983, 128, 1470, 14280, -1470, -333, 298, -147
66150, -128, 977, 131, 1330, 13230, -1120, -334, 292, -139
66151, -129, 974, 134, 1260, 12740, -910, -328, 286, -142
66152, -134, 974, 133, 1330, 13230, -770, -321, 295, -151
66153, -137, 976, 137, 1470, 13580, -420, -322, 289, -141
66154, -159, 978, 140, 1400, 13020, -280, -327, 280, -139
66155, -175, 986, 139, 1190, 10290, 210, -325, 291, -139
66156, -174, 984, 139, 980, 8190, 350, -337, 288, -138
66157, -189, 985, 138, 630, 5880, 490, -331, 282, -132
66158, -189, 988, 141, 140, 2800, 560, -331, 288, -135
66159, -177, 987, 142, -280, 0, 630, -327, 285, -130
66160, -152, 981, 155, -980, -3360, 770, -334, 289, -136
66161, -146, 976, 158, -1190, -4060, 980, -334, 289, -153
66162, -149, 971, 164, -1120, -4620, 1190, -331, 288, -139
66163, -149, 969, 166, -1120, -5320, 1330, -334, 285, -136
66164, -145, 966, 167, -980, -5670, 1750, -328, 294, -148
66165, -147, 968, 175, -980, -5740, 1960, -339, 283, -138
66166, -152, 971, 179, -1050, -6230, 2100, -319, 289, -138
66167, -148, 976, 183, -1190, -7210, 2310, -330, 289, -141
66168, -144, 979, 184, -1190, -8050, 2520, -336, 292, -138
66169, -128, 976, 193, -1330, -8260, 3010, -340, 289, -138
66170, -114, 975, 199, -1120, -6790, 3360, -322, 283, -139
66171, -105, 977, 201, -910, -4410, 3710, -333, 285, -136
66172, -101, 978, 202, -630, -1680, 4200, -328, 294, -141
66173, -106, 977, 198, -560, 490, 4620, -333, 289, -142
66174, -123, 982, 190, -630, 1960, 5180, -328, 291, -139
66175, -126, 991, 187, -770, 1330, 5320, -328, 289, -136
66176, -137, 996, 181, -980, 140, 5390, -331, 295, -135
66177, -149, 993, 179, -1190, -1610, 5530, -336, 292, -141
66178, -161, 983, 177, -1960, -6370, 5460, -333, 289, -139
66179, -140, 987, 170, -2170, -8260, 5460, -336, 288, -144
66180, -122, 990, 171, -2310, -9030, 5460, -337, 295, -136
66181, -115, 985, 174, -2520, -9380, 5530, -333, 288, -141
66182, -106, 983, 177, -2590, -9730, 5600, -334, 294, -141
66183, -88, 994, 171, -2730, -10150, 5600, -333, 304, -145
66184, -81, 992, 175, -2730, -9660, 5530, -336, 297, -141
66185, -82, 993, 176, -2520, -9030, 5600, -331, 306, -141
66186, -80, 992, 178, -2380, -8470, 5600, -340, 297, -147
66187, -82, 992, 166, -2240, -8050, 5530, -339, 300, -144
66188, -102, 988, 152, -2450, -8260, 5390, -333, 289, -144
66189, -111, 989, 152, -2800, -9380, 5180, -337, 300, -144
66190, -109, 993, 155, -3290, -10920, 4970, -331, 297, -142
66191, -99, 996, 153, -3640, -12530, 4620, -340, 291, -145
66192, -86, 981, 161, -3850, -14980, 4130, -339, 291, -148
66193, -78, 972, 161, -3570, -15750, 3920, -345, 286, -142
66194, -84, 968, 165, -3430, -16380, 3710, -342, 289, -148
66195, -93, 968, 158, -3290, -17360, 3430, -343, 295, -151
66196, -107, 973, 155, -3430, -18830, 3010, -345, 291, -153
66197, -110, 988, 153, -4130, -23870, 2100, -339, 292, -157
66198, -101, 991, 162, -4620, -26460, 1680, -337, 291, -159
66199, -80, 989, 164, -5040, -28350, 1190, -346, 300, -154
66200, -63, 981, 171, -5110, -28980, 980, -334, 294, -160
66201, -53, 968, 174, -4900, -28630, 700, -342, 300, -160
66202, -43, 947, 186, -3920, -25060, 420, -333, 298, -160
66203, -44, 948, 189, -3290, -22260, 420, -343, 294, -156
66204, -53, 952, 191, -2730, -19600, 490, -346, 294, -169
66205, -61, 960, 191, -2380, -17990, 420, -349, 295, -174
66206, -68, 967, 199, -2170, -16870, 350, -348, 297, -171
66207, -63, 972, 198, -2100, -16660, 140, -336, 298, -177
66208, -53, 972, 203, -2170, -15890, 70, -343, 292, -166
66209, -47, 968, 207, -1960, -14490, 0, -345, 289, -163
66210, -52, 960, 215, -1680, -12670, 140, -351, 288, -174
66211, -57, 943, 223, -770, -9100, 280, -346, 291, -165
66212, -55, 939, 230, -350, -7420, 350, -342, 292, -168
66213, -55, 939, 237, 140, -5740, 350, -346, 295, -166
66214, -52, 938, 241, 350, -4200, 490, -339, 291, -175
66215, -56, 936, 247, 560, -2800, 560, -342, 294, -177
66216, -55, 942, 258, 700, 70, 770, -337, 301, -184
66217, -57, 944, 270, 700, 1610, 840, -337, 294, -175
66218, -65, 944, 274, 630, 2660, 1050, -339, 297, -174
66219, -69, 942, 277, 420, 3570, 1260, -342, 297, -174
66220, -81, 937, 302, 280, 4900, 1750, -342, 298, -166
66221, -87, 931, 307, 140, 5390, 1890, -348, 294, -166
66222, -93, 924, 309, 0, 5390, 2030, -349, 301, -174
66223, -96, 921, 317, -210, 5180, 2100, -345, 292, -174
66224, -95, 911, 324, -630, 4830, 2240, -333, 292, -171
66225, -78, 899, 324, -1470, 4830, 2520, -343, 297, -168
66226, -70, 909, 321, -1960, 5670, 2660, -348, 292, -174
66227, -64, 928, 315, -2590, 6650, 2870, -340, 300, -166
66228, -60, 955, 314, -3360, 7700, 3150, -334, 303, -175
66229, -71, 975, 303, -4620, 8190, 3360, -346, 297, -171
66230, -96, 1032, 286, -7770, 7350, 3640, -336, 295, -174
66231, -116, 1054, 272, -9870, 5880, 3640, -336, 291, -178
66232, -133, 1090, 263, -12320, 3500, 3430, -342, 291, -172
66233, -139, 1130, 254, -15330, -70, 3150, -349, 292, -174
66234, -156, 1060, 243, -22330, -10640, 2590, -352, 291, -171
66235, -147, 963, 261, -25690, -16170, 2380, -346, 297, -175
66236, -131, 864, 347, -27860, -20160, 2310, -339, 307, -189
66237, -38, 855, 483, -27930, -20020, 2730, -340, 292, -175
66238, 132, 935, 576, -24290, -10920, 3500, -340, 288, -183
66239, 237, 1025, 535, -9520, 31850, 7490, -346, 289, -192
66240, 57, 1017, 427, -3220, 49000, 9240, -351, 291, -183
66241, -129, 1015, 345, -770, 53410, 9590, -345, 295, -180
66242, -241, 1048, 255, -2100, 45920, 8610, -342, 291, -175
66243, -218, 1095, 184, -5600, 32480, 6020, -349, 301, -174
66244, 10, 1010, 264, -9520, 13580, 5530, -336, 289, -181
66245, 130, 952, 277, -7980, 14840, 6160, -354, 295, -166
66246, 139, 823, 273, -4690, 23100, 7140, -349, 300, -169
66247, 36, 675, 247, -1470, 31640, 8260, -343, 300, -165
66248, -152, 676, 174, -490, 33810, 8890, -342, 298, -175
66249, -141, 847, 145, -2100, 30660, 8610, -349, 301, -172
66250, -125, 946, 217, -3920, 27160, 8260, -349, 297, -172
66251, -37, 1034, 348, -3290, 23240, 7910, -351, 300, -162
66252, 233, 1353, 351, 2310, 27090, 8330, -349, 301, -169
66253, 295, 1197, 148, 20860, 77980, 12950, -346, 291, -165
66254, -215, 681, 111, 24640, 86310, 13790, -342, 298, -156
66255, -571, 547, 66, 20790, 65800, 12180, -343, 297, -156
66256, -525, 875, 3, 12460, 32480, 9590, -354, 301, -154
66257, -184, 1260, -31, 700, 3220, 7210, -352, 295, -145
66258, -71, 1110, 39, -3430, -910, 6930, -346, 303, -147
66259, -239, 813, 143, -8610, -13720, 5880, -354, 295, -147
66260, -184, 783, 221, -12880, -30030, 4690, -358, 304, -151
66261, 91, 961, 241, -12180, -31780, 4830, -349, 306, -154
66262, 233, 847, 260, 4550, 19040, 9030, -351, 297, -153
66263, 49, 654, 234, 12950, 39340, 11060, -352, 301, -151
66264, -80, 635, 183, 17010, 44100, 12460, -351, 303, -139
66265, -115, 797, 119, 17430, 39270, 12810, -351, 307, -148
66266, -105, 1013, 81, 15750, 32130, 12950, -349, 313, -147
66267, -238, 1156, 89, 8540, 12250, 10710, -357, 313, -132
66268, -282, 1131, 121, 3290, -4060, 8540, -358, 312, -130
66269, -208, 1117, 122, -1260, -19880, 6650, -354, 312, -147
66270, -81, 1098, 137, -3010, -28140, 5600, -358, 318, -142
66271, 41, 1078, 117, 1610, -21070, 5880, -352, 300, -141
66272, 18, 969, 93, 4620, -15400, 6230, -355, 309, -141
66273, -59, 1001, 84, 6160, -14560, 6090, -345, 313, -141
66274, -89, 1107, 53, 5810, -18410, 5670, -345, 310, -138
66275, -83, 1188, 27, 4270, -23800, 5040, -361, 307, -144
66276, -142, 1103, 32, -1890, -38710, 3430, -354, 313, -145
66277, -169, 1023, 51, -5600, -49000, 2310, -360, 306, -150
66278, -163, 981, 60, -8750, -58940, 1190, -361, 307, -144
66279, -120, 970, 72, -10640, -67060, 210, -361, 304, -156
66280, -58, 935, 101, -10780, -70350, -560, -357, 310, -151
66281, 9, 856, 153, -6860, -62440, -1120, -357, 301, -159
66282, -11, 898, 144, -4620, -57750, -1050, -361, 322, -165
66283, 19, 975, 138, -3290, -53760, -700, -355, 312, -177
66284, 20, 1052, 117, -2730, -49630, -350, -370, 319, -172
66285, -13, 1106, 101, -5110, -49840, 210, -361, 310, -171
66286, -105, 1148, 74, -7770, -55370, -70, -358, 309, -184
66287, -124, 1145, 66, -10920, -63770, -490, -361, 316, -183
66288, -114, 1128, 75, -13790, -72520, -910, -367, 304, -190
66289, -99, 1083, 84, -16030, -79660, -1330, -366, 322, -192
66290, -97, 966, 139, -18340, -89530, -2380, -361, 309, -198
66291, -48, 912, 163, -18060, -89670, -2730, -370, 315, -202
66292, 29, 875, 190, -16310, -83440, -2800, -372, 309, -210
66293, 60, 856, 207, -13510, -73710, -2310, -363, 310, -214
66294, 87, 839, 217, -10290, -62440, -1680, -366, 312, -216
66295, 109, 898, 211, -4690, -38640, -140, -369, 318, -213
66296, 83, 938, 202, -3150, -29750, 560, -378, 303, -223
66297, 30, 977, 203, -2730, -25060, 1050, -378, 307, -217
66298, 0, 1021, 205, -2940, -24430, 1470, -372, 312, -226
66299, -25, 1041, 211, -4200, -26390, 2100, -369, 313, -223
66300, -42, 985, 227, -4550, -26460, 2380, -375, 310, -228
66301, -32, 944, 240, -4760, -25480, 2800, -372, 318, -226
66302, -15, 915, 247, -4270, -23240, 3290, -376, 309, -226
66303, 18, 898, 254, -3360, -19390, 3990, -379, 315, -228
66304, 64, 882, 271, -630, -8050, 5390, -366, 307, -231
66305, 65, 894, 275, 840, -2870, 6230, -373, 315, -231
66306, 58, 912, 278, 2100, 1260, 6930, -376, 321, -228
66307, 56, 936, 274, 3010, 4340, 7420, -379, 319, -226
66308, 55, 961, 274, 3710, 7070, 7770, -378, 312, -234
66309, 28, 977, 283, 3710, 9870, 7980, -376, 316, -226
66310, 4, 974, 281, 3220, 8960, 7910, -370, 310, -223
66311, -6, 964, 287, 2450, 6930, 7630, -373, 316, -214
66312, -12, 944, 293, 1470, 4410, 7280, -372, 316, -226
66313, 2, 896, 308, -140, -490, 6300, -375, 324, -217
66314, 17, 875, 316, -630, -2100, 5810, -378, 319, -228
66315, 28, 868, 317, -910, -2870, 5320, -373, 327, -228
66316, 47, 875, 334, -980, -3080, 4970, -373, 313, -228
66317, 64, 893, 341, -1050, -2660, 4690, -373, 328, -223
66318, 71, 943, 361, -1400, -2030, 3990, -381, 325, -231
66319, 70, 969, 367, -1610, -2450, 3430, -375, 328, -231
66320, 83, 990, 377, -1330, -2520, 2940, -375, 319, -228
66321, 118, 977, 374, -560, -1540, 2450, -384, 315, -234
66322, 158, 946, 369, 1120, 1120, 2030, -367, 324, -226
66323, 185, 937, 299, 5460, 10220, 1820, -378, 325, -226
66324, 145, 993, 262, 7000, 14210, 1820, -376, 321, -225
66325, 59, 1083, 231, 7280, 15400, 1400, -388, 321, -231
66326, -12, 1175, 202, 6160, 12180, 560, -375, 321, -228
66327, -13, 1189, 158, 1750, -1960, -1540, -387, 331, -214
66328, 30, 1112, 147, -140, -8190, -2170, -378, 328, -223
66329, 62, 1030, 156, -1190, -11900, -2520, -381, 328, -226
66330, 66, 969, 157, -1540, -13090, -2590, -375, 325, -225
66331, 38, 929, 167, -1470, -13160, -2660, -379, 327, -217
66332, -27, 938, 179, -1470, -14140, -3150, -379, 339, -211
66333, -19, 972, 191, -1540, -15260, -3570, -375, 324, -220
66334, 0, 992, 187, -1470, -15610, -3850, -378, 319, -229
66335, 31, 973, 199, -1400, -15470, -3920, -384, 322, -220
66336, 38, 939, 193, -1330, -15190, -3920, -381, 328, -223
66337, 24, 908, 198, -1400, -16030, -3850, -384, 325, -219
66338, 11, 924, 200, -1610, -16380, -3850, -372, 322, -223
66339, 1, 942, 217, -1960, -16800, -3850, -382, 328, -225
66340, -21, 950, 229, -2520, -17850, -3990, -381, 321, -234
66341, -44, 942, 258, -3990, -22750, -4550, -375, 321, -228
66342, -36, 929, 272, -4480, -25060, -4970, -378, 324, -225
66343, -21, 894, 289, -4620, -26880, -5320, -378, 337, -238
66344, -15, 872, 295, -4270, -28280, -5670, -384, 336, -234
66345, 5, 860, 314, -3780, -29610, -6020, -391, 321, -231
66346, 47, 925, 298, -2940, -30590, -6440, -384, 333, -228
66347, 57, 1009, 289, -2800, -30030, -6510, -381, 322, -238
66348, 47, 1054, 289, -3430, -29750, -6650, -378, 331, -241
66349, 3, 1064, 274, -4620, -31290, -6860, -382, 325, -226
66350, -20, 1065, 267, -6370, -35350, -7210, -379, 324, -244
66351, -38, 1061, 244, -9940, -44870, -7840, -373, 322, -255
66352, -60, 1034, 256, -11690, -49280, -8260, -379, 327, -243
66353, -91, 970, 288, -13230, -53340, -8960, -381, 316, -250
66354, -90, 891, 313, -14210, -56980, -9870, -385, 325, -256
66355, 81, 808, 353, -11340, -54180, -11130, -393, 319, -250
66356, 178, 808, 349, -7000, -45710, -11200, -382, 321, -264
66357, 251, 811, 327, -1470, -33880, -10920, -388, 319, -247
66358, 271, 810, 312, 4130, -20650, -10220, -390, 324, -252
66359, 238, 822, 284, 8470, -9030, -9380, -390, 321, -261
66360, 38, 991, 231, 10080, -1540, -8400, -385, 304, -265
66361, -69, 1192, 212, 7560, -5040, -8540, -385, 313, -258
66362, -122, 1359, 200, 3430, -10920, -8820, -394, 316, -258
66363, -141, 1354, 200, -1260, -18130, -9240, -381, 319, -250
66364, -116, 1232, 187, -5740, -33810, -9450, -379, 319, -262
66365, 11, 1061, 197, -9800, -36610, -9100, -393, 315, -259
66366, 51, 977, 225, -8960, -33390, -8610, -388, 316, -265
66367, 54, 866, 249, -6650, -26460, -7980, -381, 310, -273
66368, 48, 782, 254, -3850, -19110, -7420, -388, 315, -271
66369, 36, 759, 250, 1400, -6790, -6510, -373, 313, -265
66370, 34, 795, 246, 3080, -3080, -5950, -391, 319, -270
66371, 41, 866, 241, 4060, -770, -5390, -382, 310, -262
66372, 31, 949, 253, 3850, 0, -4900, -394, 309, -267
66373, 4, 1006, 265, 2870, -280, -4690, -381, 318, -271
66374, -55, 941, 288, -140, -3640, -4620, -379, 321, -267
66375, -40, 851, 301, -1120, -5110, -4690, -382, 304, -268
66376, 2, 780, 303, -1050, -4550, -4690, -390, 307, -268
66377, 53, 754, 315, 210, -1330, -4480, -382, 309, -264
66378, 112, 793, 328, 4690, 11550, -3220, -381, 321, -265
66379, 180, 1024, 350, 6860, 18690, -2380, -385, 301, -261
66380, 163, 1104, 344, 8470, 24430, -1750, -387, 309, -259
66381, 113, 1109, 321, 9380, 28000, -1260, -393, 306, -270
66382, 55, 1049, 298, 9870, 30100, -910, -382, 304, -262
66383, -14, 905, 281, 10010, 30800, -420, -381, 313, -256
66384, -18, 856, 268, 9730, 29190, -140, -385, 300, -258
66385, -6, 835, 263, 9240, 27370, 210, -376, 309, -265
66386, -15, 823, 277, 8610, 26250, 700, -381, 306, -264
66387, -33, 857, 286, 7910, 24990, 910, -381, 318, -250
66388, -32, 1021, 306, 6020, 21420, 1120, -375, 307, -261
66389, -33, 1069, 306, 5040, 19880, 1330, -381, 313, -249
66390, -39, 1076, 304, 3850, 18270, 1540, -385, 307, -244
66391, -58, 1094, 300, 2170, 15750, 1680, -382, 309, -244
66392, -69, 1116, 293, -2030, 6300, 1750, -376, 307, -253
66393, -88, 1057, 287, -4060, 490, 1610, -378, 316, -256
66394, -53, 1014, 285, -5250, -3290, 1610, -381, 307, -247
66395, 4, 1027, 294, -5250, -3640, 1890, -379, 318, -243
66396, 43, 1062, 309, -4550, -490, 2380, -382, 306, -250
66397, 28, 954, 326, -2590, 4550, 3640, -372, 306, -249
66398, 39, 912, 316, -1260, 5320, 4130, -378, 309, -250
66399, 65, 896, 292, 560, 9170, 4760, -370, 310, -253
66400, 69, 801, 270, 2870, 16170, 5740, -373, 312, -256
66401, 27, 678, 263, 4900, 22610, 6720, -390, 313, -238
66402, 23, 849, 267, 8330, 26180, 7630, -387, 316, -241
66403, 109, 1317, 229, 10920, 29050, 7980, -372, 309, -240
66404, 160, 1748, 149, 13300, 36610, 8820, -378, 318, -244
66405, 92, 1751, 102, 13720, 42840, 9450, -379, 310, -235
66406, -140, 1546, 60, 3640, 18900, 8610, -378, 307, -234
66407, -303, 1112, 4, -4480, -7840, 7700, -382, 316, -241
66408, -212, 1031, 4, -10850, -30660, 7280, -385, 312, -243
66409, -125, 926, 26, -14420, -42630, 7630, -379, 318, -243
66410, -103, 744, 81, -15890, -45430, 8260, -379, 310, -250
66411, -150, 533, 227, -16730, -48510, 7910, -384, 313, -246
66412, -57, 625, 292, -14770, -48790, 7210, -373, 318, -262
66413, 116, 754, 327, -10080, -40600, 7280, -388, 306, -261
66414, 227, 788, 345, -3220, -22540, 8260, -388, 310, -261
66415, 244, 702, 355, 3920, -2100, 9520, -397, 322, -247
66416, 123, 752, 266, 11410, 15750, 11060, -376, 315, -252
66417, 92, 926, 226, 11620, 14630, 11410, -382, 321, -255
66418, 56, 1063, 216, 10010, 11690, 11410, -394, 321, -255
66419, -17, 1138, 206, 7210, 6860, 10990, -388, 322, -250
66420, -96, 1263, 203, -1260, -11620, 8750, -385, 315, -253
66421, -92, 1213, 210, -5320, -21420, 7490, -384, 310, -249
66422, -43, 1073, 219, -7910, -27930, 6440, -388, 310, -252
66423, 43, 979, 235, -8960, -30940, 5950, -402, 321, -253
66424, 115, 936, 261, -8400, -29540, 5810, -396, 315, -261
66425, 145, 801, 310, -4480, -17290, 6090, -382, 322, -264
66426, 140, 760, 297, -1680, -9940, 6230, -391, 313, -261
66427, 139, 795, 281, 910, -2940, 6440, -396, 324, -258
66428, 137, 924, 245, 2730, 2940, 6790, -400, 325, -261
66429, 114, 1072, 219, 2940, 6580, 7000, -391, 322, -265
66430, -5, 1156, 221, -2590, -2590, 5670, -390, 324, -255
66431, -15, 1127, 240, -6580, -12880, 4550, -400, 324, -252
66432, 42, 1067, 237, -9170, -20860, 3500, -391, 306, -264
66433, 100, 950, 243, -9800, -22470, 2940, -397, 324, -262
66434, 126, 637, 334, -6160, -14490, 2170, -403, 327, -268
66435, 179, 668, 339, -2170, -8960, 1680, -402, 324, -267
66436, 266, 794, 322, 3080, 910, 1750, -388, 324, -262
66437, 319, 825, 313, 8330, 15050, 2520, -390, 319, -277
66438, 267, 755, 297, 12250, 27510, 3430, -397, 322, -262
66439, 118, 825, 256, 13230, 29470, 3780, -393, 327, -261
66440, 133, 956, 250, 12320, 26600, 3780, -399, 328, -262
66441, 160, 1063, 246, 11760, 27930, 4060, -396, 333, -258
66442, 151, 1134, 252, 11410, 32690, 4480, -396, 315, -252
66443, 78, 1175, 274, 10430, 35840, 4480, -396, 331, -258
66444, 40, 1198, 239, 7280, 28560, 2940, -391, 322, -255
66445, 99, 1206, 194, 6440, 27020, 2590, -399, 325, -253
66446, 107, 1140, 177, 5740, 28770, 2590, -391, 330, -259
66447, 31, 987, 193, 3990, 28350, 2240, -391, 342, -234
66448, -24, 811, 205, -1260, 11130, 420, -396, 330, -246
66449, 102, 815, 218, -1680, 5460, -70, -391, 336, -241
66450, 241, 765, 256, 420, 9310, 140, -387, 333, -250
66451, 296, 653, 304, 4410, 19950, 840, -397, 330, -253
66452, 301, 586, 325, 9170, 30800, 1540, -397, 340, -240
66453, 332, 668, 269, 18900, 49840, 2730, -382, 333, -235
66454, 314, 736, 251, 22890, 60410, 3360, -391, 333, -240
66455, 251, 897, 238, 25620, 68810, 3500, -393, 325, -234
66456, 145, 1172, 197, 26040, 72170, 3010, -394, 337, -223
66457, 34, 1535, 125, 23870, 69930, 1890, -391, 334, -220
66458, -64, 1829, 79, 10640, 44380, -840, -393, 331, -220
66459, -96, 1596, 64, 770, 20160, -2380, -384, 333, -211
66460, -133, 1268, 54, -8820, -5950, -3850, -390, 336, -211
66461, -125, 1001, 68, -15540, -26180, -5040, -387, 336, -220
66462, -7, 640, 149, -18620, -35350, -5810, -390, 333, -219
66463, 20, 518, 258, -15820, -29330, -5880, -384, 327, -220
66464, 118, 544, 331, -10430, -20930, -5880, -396, 333, -225
66465, 292, 730, 335, -2240, -6370, -5110, -385, 328, -222
66466, 443, 882, 294, 7070, 17360, -3080, -390, 325, -222
66467, 202, 882, 222, 17850, 56770, 350, -387, 328, -226
66468, -76, 959, 183, 15400, 50190, -140, -387, 328, -213
66469, -171, 1180, 141, 9520, 29960, -1470, -384, 331, -214
66470, -123, 1399, 98, 3920, 10990, -2800, -387, 327, -210
66471, -64, 1404, 93, -140, 1190, -4410, -378, 324, -202
66472, -177, 864, 161, -7560, -16660, -5530, -384, 331, -208
66473, -126, 853, 166, -10640, -30100, -6440, -382, 319, -214
66474, 30, 955, 167, -11830, -36890, -6790, -382, 321, -207
66475, 92, 929, 204, -10920, -32900, -6650, -387, 321, -211
66476, 28, 692, 326, -5600, -21420, -7070, -385, 322, -213
66477, 143, 807, 325, -630, -14910, -7070, -373, 315, -217
66478, 312, 912, 290, 6370, 910, -6090, -391, 325, -220
66479, 349, 849, 247, 12950, 22400, -4270, -387, 316, -226
66480, 207, 668, 227, 16100, 37100, -2870, -384, 322, -219
66481, -148, 881, 138, 9590, 20300, -3780, -382, 318, -207
66482, -95, 1291, 111, 3710, 5040, -4970, -372, 321, -211
66483, -42, 1595, 90, -1540, -2380, -5950, -376, 330, -213
66484, -83, 1669, 108, -7490, -8470, -6790, -376, 313, -207
66485, -187, 1580, 157, -22960, -43890, -10080, -376, 310, -222
66486, -96, 1207, 195, -28070, -62370, -11410, -378, 318, -223
66487, 32, 930, 210, -28840, -68460, -11830, -382, 321, -223
66488, 84, 589, 290, -25410, -60900, -11830, -384, 318, -241
66489, 136, 323, 376, -19040, -44940, -11690, -381, 322, -232
66490, 300, 584, 302, -980, 2170, -9940, -382, 312, -238
66491, 325, 798, 256, 7700, 28280, -8190, -381, 309, -235
66492, 219, 1012, 232, 13090, 46760, -7000, -373, 315, -240
66493, 98, 1311, 214, 13790, 52360, -6860, -382, 325, -228
66494, 37, 1538, 182, 10010, 44870, -7420, -378, 312, -232
66495, -58, 1251, 130, -2800, 10640, -9520, -376, 313, -228
66496, -99, 967, 111, -7630, -5810, -10710, -375, 321, -235
66497, -84, 946, 102, -9800, -16310, -11550, -375, 309, -231
66498, 12, 1140, 98, -9660, -18270, -11970, -375, 306, -232
66499, 58, 1287, 122, -8610, -10150, -12250, -373, 319, -228
66500, -125, 963, 159, -10640, -13440, -12810, -370, 309, -241
66501, -201, 755, 149, -13860, -23870, -13510, -379, 307, -237
66502, -190, 613, 144, -16940, -35420, -14000, -373, 312, -243
66503, -86, 519, 158, -17850, -40320, -14280, -378, 306, -246
66504, 201, 495, 338, -11550, -21630, -13160, -372, 300, -249
66505, 348, 788, 402, -3710, -1820, -12040, -373, 309, -246
66506, 474, 1284, 335, 6230, 23380, -10360, -373, 300, -244
66507, 491, 1550, 211, 15610, 52430, -8260, -373, 300, -238
66508, 302, 1396, 143, 21560, 74900, -6930, -363, 304, -246
66509, -303, 1031, 87, 16030, 61670, -8750, -373, 309, -229
66510, -286, 989, 76, 8540, 34580, -10780, -369, 307, -232
66511, -143, 991, 51, 3290, 14630, -11620, -361, 309, -235
66512, -19, 897, 61, 1190, 8120, -11410, -367, 306, -231
66513, -60, 696, 93, -1540, 5460, -10290, -366, 303, -231
66514, -209, 624, 174, -3920, -3360, -10640, -367, 294, -240
66515, -97, 897, 175, -5110, -9310, -10990, -354, 301, -240
66516, 13, 1110, 201, -4270, -6160, -10570, -366, 309, -241
66517, 28, 1117, 273, -2870, 1400, -9660, -366, 301, -234
66518, -87, 1002, 289, -2380, 1960, -8610, -363, 292, -238
66519, -53, 1050, 267, -2030, 0, -8400, -360, 294, -234
66520, -28, 1020, 241, -630, 3220, -7700, -354, 295, -235
66521, -64, 888, 221, 910, 8330, -6790, -354, 303, -234
66522, -157, 730, 234, 1400, 8890, -6020, -358, 301, -240
66523, -151, 728, 242, 140, -1260, -5390, -360, 288, -237
66524, -64, 789, 247, 1120, 0, -4690, -360, 295, -244
66525, -10, 800, 258, 3500, 7070, -3570, -349, 306, -244
66526, 0, 759, 302, 6090, 14770, -2240, -354, 300, -238
66527, 35, 882, 294, 11550, 26390, 490, -364, 315, -237
66528, 162, 1446, 243, 13860, 35490, 2310, -355, 303, -229
66529, 23, 1432, 211, 14420, 41580, 3430, -360, 318, -225
66530, -217, 1316, 181, 11690, 36680, 3570, -358, 298, -231
66531, -363, 1213, 145, 5950, 20090, 2800, -369, 297, -241
66532, -325, 983, 106, -5880, -16590, 840, -361, 301, -222
66533, -244, 822, 134, -8960, -26180, 700, -357, 303, -229
66534, -159, 730, 180, -10150, -30660, 980, -354, 304, -228
66535, -104, 758, 231, -9940, -31640, 1400, -361, 310, -232
66536, -56, 867, 264, -8540, -29190, 1750, -361, 301, -229
66537, -46, 1098, 276, -4690, -15750, 2870, -357, 319, -237
66538, -75, 1127, 268, -4060, -10920, 3430, -366, 303, -238
66539, -129, 1057, 269, -5040, -11200, 3640, -364, 307, -244
66540, -164, 965, 275, -6930, -16380, 3500, -358, 304, -244
66541, 8, 1007, 248, -7630, -19740, 4410, -367, 318, -241
66542, 40, 992, 262, -5600, -12390, 5600, -361, 309, -244
66543, 16, 960, 286, -3080, -4900, 6720, -367, 313, -235
66544, 12, 993, 290, -700, 490, 7630, -361, 309, -235
66545, 50, 1095, 270, 1680, 6720, 8400, -372, 300, -235
66546, 9, 907, 250, 4620, 21770, 10220, -375, 315, -234
66547, -63, 682, 212, 3990, 21980, 10990, -364, 316, -228
66548, -70, 628, 178, 2730, 17780, 11480, -367, 321, -234
66549, -71, 724, 163, 1470, 14560, 11970, -364, 319, -250
66550, -57, 855, 170, 560, 14700, 12460, -366, 315, -225
66551, -193, 1102, 183, -3640, 10010, 12670, -364, 316, -219
66552, -223, 1341, 195, -8190, -210, 11970, -369, 318, -231
66553, -188, 1442, 238, -13230, -12740, 11060, -367, 313, -229
66554, -113, 1396, 280, -17360, -24850, 10290, -367, 307, -234
66555, 56, 1064, 370, -17080, -34510, 10080, -373, 312, -229
66556, 141, 859, 347, -11480, -25970, 10850, -375, 316, -228
66557, 207, 715, 312, -3710, -9030, 12250, -370, 322, -246
66558, 141, 602, 270, 3640, 9940, 13510, -367, 316, -225
66559, 3, 526, 240, 8190, 21490, 14140, -367, 310, -235
66560, -193, 669, 177, 6790, 9170, 12880, -369, 321, -234
66561, -127, 883, 158, 3990, -3990, 11760, -367, 309, -228
66562, -41, 1087, 173, 1610, -12880, 10710, -382, 315, -238
66563, -25, 1178, 210, -560, -17920, 9800, -375, 324, -226
66564, -69, 1165, 261, -2940, -23730, 8610, -381, 324, -234
66565, -10, 1231, 271, -6580, -37450, 6440, -379, 318, -235
66566, 8, 1143, 238, -6790, -40390, 5950, -370, 324, -240
66567, 6, 977, 214, -6650, -42280, 5460, -381, 312, -235
66568, -15, 964, 208, -6720, -45080, 4900, -375, 319, -235
66569, 11, 1114, 197, -8260, -51170, 2660, -375, 312, -246
66570, 82, 1187, 191, -8540, -50330, 1890, -373, 319, -246
66571, 141, 1199, 191, -8750, -47880, 1610, -387, 315, -252
66572, 101, 1039, 200, -9590, -46200, 1400, -388, 322, -247
66573, -16, 851, 203, -10850, -49560, 700, -378, 318, -259
66574, -110, 715, 214, -12110, -61530, -2030, -381, 316, -255
66575, -87, 667, 232, -10920, -59220, -3290, -382, 318, -268
66576, -69, 607, 251, -8820, -51730, -4270, -387, 307, -261
66577, -56, 556, 267, -6860, -45010, -5180, -387, 312, -264
66578, -4, 588, 255, -5600, -41090, -5880, -382, 316, -268
66579, 277, 1024, 254, -3150, -29120, -6160, -382, 306, -270
66580, 342, 1259, 295, -1820, -16660, -5530, -381, 315, -268
66581, 393, 1332, 363, -700, -4550, -5040, -391, 310, -270
66582, 334, 1374, 362, 1190, 5320, -5180, -387, 312, -283
66583, 334, 1286, 265, 7840, 26040, -4620, -391, 309, -271
66584, 251, 862, 241, 10850, 37380, -3850, -391, 306, -253
66585, 148, 437, 182, 12110, 42560, -3080, -390, 307, -258
66586, 8, 301, 124, 11970, 41790, -3220, -381, 312, -261
66587, -30, 404, 80, 11130, 36960, -3360, -382, 313, -262
66588, 28, 859, 130, 8610, 29820, -3850, -385, 306, -265
66589, 29, 1189, 226, 6580, 26040, -4620, -382, 306, -265
66590, 77, 1535, 309, 4690, 19880, -5810, -375, 313, -258
66591, 145, 1704, 334, 3850, 16100, -7140, -378, 316, -262
66592, 189, 1600, 305, 4480, 19040, -7280, -385, 309, -255
66593, -27, 836, 182, 3570, 15750, -7000, -381, 310, -259
66594, -161, 639, 168, 560, 4760, -7840, -373, 304, -256
66595, -131, 742, 180, -1260, -7910, -9240, -381, 306, -259
66596, 41, 1073, 177, 630, -10990, -10220, -375, 301, -264
66597, 130, 983, 223, 10430, 16030, -8680, -388, 301, -256
66598, -30, 704, 233, 12250, 21630, -7910, -372, 298, -253
66599, -173, 633, 199, 10500, 13790, -8260, -373, 310, -250
66600, -158, 721, 157, 6930, 420, -8960, -372, 307, -255
66601, -97, 837, 131, 4060, -8260, -9310, -363, 303, -250
66602, -123, 896, 150, -980, -10500, -8610, -384, 313, -255
66603, -211, 925, 183, -5460, -15680, -8610, -373, 306, -253
66604, -200, 999, 271, -10570, -25480, -9380, -375, 307, -265
66605, -116, 1163, 423, -12110, -35210, -10780, -370, 303, -262
66606, 170, 1451, 420, 1890, -15330, -10430, -379, 303, -273
66607, 421, 1124, 283, 12320, 12320, -7490, -373, 303, -255
66608, 215, 630, 282, 19110, 32200, -5040, -373, 301, -268
66609, -111, 363, 228, 19600, 33460, -4340, -376, 306, -255
66610, -244, 451, 142, 15540, 17710, -5320, -366, 303, -253
66611, -136, 983, 119, 8890, -5040, -7700, -379, 310, -256
66612, -117, 1170, 112, 6720, -3570, -7350, -378, 315, -252
66613, -186, 1367, 110, 1890, -5950, -7000, -373, 307, -253
66614, -269, 1444, 137, -6300, -18410, -8050, -363, 304, -261
66615, -266, 1406, 196, -15400, -38640, -10010, -367, 310, -259
66616, 42, 1176, 327, -21980, -65030, -11900, -379, 304, -279
66617, 163, 951, 372, -16940, -55790, -10990, -379, 306, -270
66618, 214, 622, 416, -8330, -32410, -9310, -370, 304, -279
66619, 173, 322, 387, 910, -4900, -7140, -379, 306, -268
66620, 132, 163, 310, 13160, 30310, -3360, -361, 298, -271
66621, 52, 656, 174, 14560, 35770, -1960, -376, 298, -258
66622, -10, 1011, 167, 12810, 36330, -1120, -369, 306, -256
66623, -78, 1259, 203, 8190, 31500, -980, -372, 304, -270
66624, -188, 1473, 223, 1610, 21420, -1680, -379, 301, -267
66625, -149, 1625, 336, -11060, -3570, -4130, -367, 292, -271
66626, -14, 1334, 390, -12950, -10290, -5180, -361, 306, -265
66627, 139, 1067, 367, -9520, -10220, -5250, -372, 315, -271
66628, 288, 939, 322, -2310, 1120, -3710, -378, 303, -270
66629, 292, 692, 283, 6300, 22960, -1330, -367, 304, -265
66630, -78, 156, 224, 15470, 48020, 1190, -357, 301, -271
66631, -164, 304, 167, 15260, 40880, 980, -369, 312, -256
66632, -102, 726, 134, 14210, 31990, 910, -366, 307, -261
66633, -3, 1131, 138, 13090, 29820, 1050, -370, 315, -274
66634, -29, 1374, 189, 5880, 25830, 490, -369, 304, -250
66635, -195, 1493, 285, -560, 11340, -1120, -366, 312, -259
66636, -130, 1526, 250, -5600, -3360, -2520, -369, 309, -258
66637, -12, 1378, 233, -7350, -9100, -2800, -367, 312, -256
66638, 22, 1051, 262, -5670, -5810, -2380, -364, 309, -252
66639, 28, 811, 234, 1890, 7490, -1050, -367, 312, -247
66640, 1, 912, 171, 5390, 16240, -420, -369, 307, -247
66641, -21, 953, 125, 7210, 22820, 140, -369, 310, -252
66642, -130, 933, 117, 6160, 22330, 560, -370, 315, -253
66643, -186, 923, 129, 2310, 11900, 420, -372, 313, -246
66644, -167, 1150, 80, -7770, -18410, -630, -366, 304, -244
66645, -141, 1195, 85, -11270, -26670, -910, -364, 318, -247
66646, -123, 1097, 143, -13580, -31430, -1050, -367, 306, -256
66647, -140, 1017, 238, -14560, -36400, -1400, -360, 307, -252
66648, -30, 1079, 301, -7980, -32690, -1960, -373, 318, -255
66649, 117, 872, 279, -490, -15470, -1050, -370, 307, -259
66650, 56, 507, 245, 6860, 2800, 560, -363, 316, -259
66651, -26, 233, 227, 11900, 12600, 2100, -373, 309, -250
66652, -72, 267, 190, 14000, 13370, 2800, -367, 307, -249
66653, 49, 1104, 105, 13930, 14000, 3780, -366, 301, -253
66654, -12, 1327, 130, 11340, 15750, 4060, -369, 300, -243
66655, -203, 1392, 157, 5740, 9030, 3360, -358, 304, -246
66656, -302, 1486, 171, -2310, -8330, 1610, -366, 303, -238
66657, -254, 1546, 163, -10290, -26950, -350, -369, 303, -249
66658, -131, 1100, 170, -18270, -46690, -1820, -372, 294, -250
66659, -73, 874, 255, -18760, -50470, -1400, -370, 304, -265
66660, -16, 701, 305, -16870, -48930, -770, -378, 306, -253
66661, 90, 620, 307, -12530, -38920, 70, -358, 301, -252
66662, 218, 822, 299, 1960, 3990, 3430, -373, 310, -262
66663, 180, 1062, 270, 8610, 24570, 5320, -376, 297, -267
66664, 162, 1251, 225, 12600, 36820, 6580, -369, 304, -267
66665, 46, 1303, 199, 13440, 40110, 7210, -361, 303, -256
66666, -42, 1153, 164, 10990, 34860, 7280, -366, 306, -262
66667, -256, 705, 133, 1540, 5530, 6160, -370, 298, -256
66668, -266, 607, 135, -2170, -8470, 5320, -379, 309, -262
66669, -137, 724, 120, -3360, -14000, 5040, -375, 304, -259
66670, -47, 919, 112, -3220, -10430, 5460, -375, 300, -259
66671, -17, 992, 149, -3570, -5320, 6090, -381, 304, -256
66672, -62, 1167, 268, -8820, -17850, 5040, -372, 303, -259
66673, 26, 1309, 306, -10150, -24080, 4340, -369, 294, -256
66674, 97, 1246, 333, -8120, -19530, 4410, -367, 309, -261
66675, 95, 983, 344, -3430, -8120, 5250, -382, 303, -265
66676, 70, 550, 285, 7770, 13580, 7070, -373, 304, -256
66677, 81, 631, 215, 12040, 22680, 7840, -375, 303, -261
66678, 29, 691, 180, 14560, 30940, 8400, -379, 303, -256
66679, -38, 725, 186, 14770, 34300, 8750, -376, 301, -259
66680, -96, 840, 191, 12600, 29960, 8750, -369, 301, -249
66681, -33, 1107, 203, 4620, 10220, 8120, -375, 307, -244
66682, 1, 1086, 232, 980, 2730, 7910, -373, 309, -253
66683, 3, 940, 276, -1330, -2380, 7630, -369, 310, -247
66684, -11, 844, 334, -1610, -5530, 7140, -370, 301, -256
66685, 67, 921, 349, 630, -4550, 7070, -382, 304, -247
66686, 222, 1133, 295, 9800, 19320, 8610, -375, 307, -247
66687, 111, 1129, 271, 12530, 29540, 8960, -373, 313, -247
66688, -53, 1204, 245, 11550, 27230, 8260, -366, 310, -244
66689, -110, 1241, 235, 7700, 14280, 6580, -376, 310, -243
66690, 51, 1114, 178, 1470, -7910, 4620, -379, 315, -249
66691, 28, 847, 165, 350, -9450, 4550, -373, 315, -247
66692, -63, 651, 186, -700, -12530, 4550, -379, 304, -252
66693, -103, 688, 176, -3010, -19600, 4130, -372, 310, -252
66694, -126, 855, 183, -5320, -26460, 3360, -369, 315, -256
66695, -103, 1162, 239, -7910, -31010, 1260, -378, 307, -259
66696, -25, 1340, 268, -8680, -31640, 490, -376, 316, -258
66697, 33, 1309, 329, -8960, -33110, -490, -373, 312, -255
66698, 116, 1259, 307, -7630, -35000, -1400, -382, 312, -256
66699, 212, 1277, 250, -4620, -32130, -770, -384, 309, -253
66700, 51, 726, 218, 630, -14420, -490, -399, 321, -267
66701, -119, 497, 179, 350, -15470, -1050, -379, 312, -262
66702, -118, 699, 114, -1540, -22120, -1890, -382, 309, -265
66703, -2, 1064, 90, -3710, -24920, -2100, -382, 309, -262
66704, -60, 1214, 142, -9590, -23240, -2870, -384, 309, -273
66705, -156, 1114, 189, -14630, -32130, -4130, -387, 312, -258
66706, -162, 1041, 241, -19320, -45850, -5390, -379, 307, -279
66707, -76, 999, 299, -21070, -56350, -6370, -385, 313, -271
66708, 67, 883, 332, -18410, -56490, -6510, -393, 306, -280
66709, 183, 526, 352, -5040, -23100, -4130, -388, 318, -294
66710, 98, 415, 325, 910, -5110, -2800, -387, 312, -282
66711, 7, 368, 288, 4340, 5530, -2240, -385, 306, -285
66712, -5, 429, 291, 6300, 9520, -2100, -390, 312, -294
66713, 69, 667, 287, 9520, 20790, -980, -387, 321, -277
66714, 229, 1369, 226, 10570, 32690, 70, -384, 313, -283
66715, 103, 1662, 230, 9030, 41580, 630, -379, 327, -283
66716, -73, 1577, 296, 4690, 38290, -420, -381, 318, -279
66717, -108, 1548, 292, 210, 23520, -2310, -387, 315, -273
66718, 226, 1294, 197, -490, 16450, -2730, -385, 310, -270
66719, 80, 728, 185, 1470, 26950, -1750, -379, 304, -282
66720, -175, 191, 187, 1190, 25620, -1330, -387, 306, -270
66721, -276, 36, 174, -1400, 10080, -1820, -381, 322, -276
66722, -133, 309, 159, -3080, -4900, -2100, -376, 319, -283
66723, 210, 940, 232, 1610, 13160, -350, -382, 316, -270
66724, 86, 1049, 341, 3430, 26600, 0, -379, 316, -273
66725, -12, 1251, 435, 2660, 27020, -350, -382, 324, -262
66726, 103, 1483, 453, 1610, 21070, -770, -388, 313, -265
66727, 304, 1571, 364, 7770, 37100, 1680, -378, 319, -258
66728, 305, 1025, 249, 11620, 52290, 3570, -382, 316, -271
66729, 5, 694, 229, 12180, 54110, 4130, -375, 321, -262
66730, -183, 597, 204, 9940, 41790, 3360, -375, 313, -256
66731, -131, 697, 172, 8050, 28980, 2730, -372, 316, -246
66732, 56, 723, 181, 9520, 34230, 3220, -373, 307, -253
66733, 0, 677, 248, 10360, 37100, 3220, -378, 313, -246
66734, 9, 856, 265, 10220, 32060, 2590, -379, 324, -238
66735, 135, 1270, 246, 10640, 28210, 2380, -382, 312, -240
66736, 306, 1543, 239, 12320, 34860, 2940, -373, 315, -244
66737, -41, 1016, 190, 11270, 43260, 2800, -372, 313, -247
66738, -227, 836, 149, 5670, 25270, 1400, -370, 313, -235
66739, -267, 901, 108, -1120, 910, -280, -373, 306, -235
66740, -146, 1093, 96, -6160, -16380, -1470, -370, 304, -240
66741, -75, 1151, 139, -9870, -23030, -3710, -369, 315, -232
66742, -109, 961, 289, -10360, -26320, -5180, -381, 301, -241
66743, -3, 881, 309, -9660, -29190, -6090, -381, 316, -238
66744, 124, 803, 270, -6790, -24990, -6020, -369, 313, -246
66745, 245, 713, 294, -1820, -12320, -5040, -384, 304, -249
66746, 241, 969, 259, 9310, 18200, -2730, -369, 316, -252
66747, 155, 1149, 154, 11900, 29120, -2030, -366, 315, -238
66748, 22, 1275, 126, 10640, 31430, -2030, -363, 318, -240
66749, -120, 1346, 158, 6580, 20860, -3080, -375, 310, -235
66750, -112, 1471, 144, 1960, 3920, -4410, -379, 307, -247
66751, 72, 1134, 103, -1890, -8330, -4830, -370, 306, -238
66752, -59, 728, 112, -2730, -6790, -4830, -373, 303, -246
66753, -276, 486, 125, -5040, -13230, -5740, -361, 303, -234
66754, -321, 500, 107, -8120, -26600, -6650, -367, 312, -253
66755, -218, 713, 192, -8330, -37170, -7070, -376, 310, -250
66756, 117, 1030, 275, -4830, -26460, -6790, -367, 303, -252
66757, 147, 899, 339, -630, -11690, -6580, -378, 304, -247
66758, 114, 703, 323, 3220, -280, -6300, -361, 315, -253
66759, 108, 546, 249, 6370, 7630, -5390, -376, 303, -247
66760, 78, 897, 137, 9660, 20930, -2800, -379, 316, -247
66761, -38, 1380, 103, 7770, 23940, -2660, -363, 297, -241
66762, -115, 1860, 111, 2800, 19600, -3570, -373, 303, -247
66763, -148, 2007, 104, -4690, 6510, -5180, -369, 295, -247
66764, -155, 1789, 119, -12670, -10920, -6650, -369, 304, -246
66765, -151, 990, 136, -23870, -42630, -7350, -372, 309, -244
66766, -193, 576, 177, -25270, -49000, -7070, -370, 300, -250
66767, -167, 197, 196, -23940, -47390, -6650, -372, 297, -252
66768, -101, -33, 220, -19460, -38500, -5460, -369, 309, -258
66769, 231, 175, 350, -1750, -2800, -2030, -370, 303, -265
66770, 394, 892, 339, 10150, 26600, 70, -373, 310, -268
66771, 375, 1782, 278, 19810, 59220, 2100, -366, 298, -259
66772, 169, 2260, 181, 23380, 81760, 2730, -369, 303, -256
66773, -176, 2163, 94, 18060, 78470, 1190, -367, 300, -258
66774, -413, 1453, 8, -9170, -2100, -4200, -361, 300, -255
66775, -276, 1138, 13, -19460, -42350, -5180, -366, 297, -256
66776, -106, 794, 22, -23660, -62650, -4270, -370, 310, -246
66777, -93, 447, 88, -23450, -64470, -3010, -372, 292, -256
66778, -150, 114, 151, -21840, -57400, -1960, -369, 297, -276
66779, -88, -171, 379, -14070, -42630, -2590, -366, 309, -267
66780, 218, 34, 432, -2520, -23310, -2170, -373, 301, -268
66781, 409, 259, 402, 14210, 19110, 490, -372, 303, -261
66782, 429, 257, 370, 31290, 65590, 4480, -360, 306, -264
66783, 265, 229, 298, 49000, 111580, 11340, -369, 300, -250
66784, 180, 783, 213, 48650, 104930, 12810, -366, 301, -246
66785, 316, 2040, 190, 45220, 95760, 12740, -364, 315, -232
66786, 207, 2799, 123, 39410, 98280, 11340, -360, 316, -237
66787, -174, 2709, 108, 30310, 98910, 7700, -367, 307, -222
66788, -549, 1979, 86, -3640, 20930, 210, -369, 309, -231
66789, -339, 1395, 33, -17990, -28560, -1050, -370, 310, -222
66790, -87, 945, 48, -23660, -54390, -560, -357, 301, -238
66791, 18, 501, 107, -22330, -55230, 980, -358, 321, -238
66792, -32, 212, 163, -18340, -44450, 2030, -364, 309, -240
66793, -59, 501, 224, -10500, -17850, 2940, -369, 315, -238
66794, -6, 713, 260, -6020, -1750, 3850, -369, 310, -252
66795, 53, 751, 328, -770, 14770, 5110, -366, 307, -240
66796, 144, 728, 391, 4760, 27790, 6580, -366, 306, -240
66797, 412, 966, 332, 17360, 58940, 10920, -363, 319, -225
66798, 381, 867, 293, 23800, 80640, 13510, -372, 315, -232
66799, 226, 647, 252, 27650, 93100, 15400, -366, 312, -220
66800, 55, 628, 175, 28070, 94010, 16030, -372, 318, -220
66801, -39, 1064, 105, 25270, 87570, 16030, -364, 327, -213
66802, -257, 1849, 7, 11340, 61810, 13090, -360, 318, -204
66803, -318, 1889, 51, 210, 36540, 10640, -358, 318, -207
66804, -264, 1730, 87, -11970, 4410, 8470, -358, 321, -190
66805, -188, 1359, 131, -21560, -24290, 7210, -369, 310, -198
66806, -222, 835, 139, -26040, -43330, 6510, -366, 313, -210
66807, -122, 378, 244, -21280, -49000, 7980, -363, 316, -205
66808, -10, 496, 289, -15750, -41300, 9450, -363, 321, -210
66809, 29, 741, 299, -10010, -27790, 10360, -376, 319, -199
66810, 33, 868, 303, -4760, -11900, 10920, -366, 319, -211
66811, 0, 785, 331, 1610, 3920, 10990, -370, 324, -211
66812, 55, 848, 308, 3570, 4130, 11270, -372, 318, -207
66813, 136, 868, 264, 5950, 8050, 12110, -370, 313, -220
66814, 85, 770, 232, 7980, 14840, 12950, -373, 313, -213
66815, -18, 638, 259, 8610, 17290, 13020, -375, 315, -213
66816, 51, 1347, 220, 6860, 5600, 12180, -372, 324, -214
66817, 154, 1710, 147, 6020, 6720, 11970, -364, 312, -198
66818, 74, 1690, 146, 3710, 8190, 11060, -370, 319, -208
66819, -144, 1512, 169, -2240, -3290, 9380, -376, 325, -199
66820, -258, 1273, 171, -10920, -53410, 5250, -372, 315, -210
66821, -151, 698, 176, -21000, -67970, 4130, -381, 315, -207
66822, -10, 470, 221, -17710, -66570, 4060, -369, 312, -220
66823, 79, 307, 287, -10640, -53130, 4550, -382, 316, -216
66824, 182, 361, 327, -1820, -33880, 5250, -373, 313, -226
66825, 266, 1033, 263, 13790, 10290, 7490, -388, 319, -214
66826, 189, 1366, 218, 16380, 26320, 8470, -376, 313, -223
66827, 43, 1598, 141, 13440, 28420, 8890, -376, 321, -220
66828, -142, 1711, 61, 4970, 14000, 8190, -376, 316, -219
66829, -187, 1704, -1, -6090, -11480, 7070, -376, 325, -214
66830, -239, 1544, 4, -25480, -61530, 5460, -385, 319, -240
66831, -268, 1193, 72, -31150, -78330, 4900, -388, 310, -229
66832, -246, 812, 196, -33460, -91210, 4200, -372, 313, -235
66833, -158, 590, 280, -30520, -97300, 3430, -393, 321, -246
66834, 160, 628, 258, -9940, -54180, 5250, -384, 310, -241
66835, 257, 429, 265, 2030, -12600, 6860, -397, 319, -246
66836, 52, 190, 249, 9590, 14560, 7630, -385, 312, -249
66837, -97, 232, 172, 10780, 20300, 7700, -394, 318, -244
66838, -90, 589, 107, 8260, 13160, 7700, -385, 328, -246
66839, 122, 1480, 54, 490, 3570, 8190, -387, 319, -253
66840, 40, 1557, 76, -5880, -1960, 8260, -393, 316, -241
66841, -153, 1352, 176, -15190, -19740, 7280, -393, 316, -240
66842, -235, 1078, 328, -23590, -47460, 4970, -396, 318, -244
66843, -27, 1018, 438, -24010, -69090, 2520, -394, 321, -247
66844, 763, 946, 255, 4340, -14980, 4410, -403, 327, -255
66845, 656, 708, 248, 21770, 42700, 8400, -391, 322, -252
66846, 317, 593, 179, 30240, 73990, 11200, -388, 321, -252
66847, -181, 864, 82, 26880, 70560, 11340, -390, 316, -243
66848, -290, 1219, 45, 2870, -1050, 7350, -394, 313, -234
66849, -100, 1364, 48, -5740, -29680, 5740, -397, 318, -226
66850, -147, 1020, 77, -10570, -42490, 4410, -385, 321, -238
66851, -234, 580, 139, -13930, -47740, 3570, -396, 333, -243
66852, -349, 307, 137, -17010, -54530, 2380, -400, 319, -253
66853, -7, 481, 176, -17850, -59080, 1330, -399, 315, -249
66854, 256, 581, 384, -13370, -45710, 1890, -394, 324, -261
66855, 420, 795, 557, -5180, -26600, 2450, -396, 318, -255
66856, 690, 1243, 540, 5880, -1960, 4130, -397, 316, -261
66857, 834, 1628, 395, 16870, 32550, 7210, -406, 322, -253
66858, 121, 1136, 191, 23940, 72870, 10710, -390, 322, -255
66859, -352, 833, 135, 15610, 50540, 8820, -400, 316, -246
66860, -444, 919, 100, 4410, 10850, 5390, -393, 328, -256
66861, -227, 1333, 56, -4550, -23030, 2870, -402, 330, -250
66862, 9, 1398, 43, -12110, -34160, 1330, -399, 333, -252
66863, -218, 658, 128, -16940, -41440, 70, -387, 327, -253
66864, -261, 603, 145, -23660, -60060, -1820, -399, 340, -259
66865, -139, 835, 105, -28770, -76090, -3570, -397, 333, -261
66866, 22, 1040, 91, -30940, -80150, -4410, -409, 334, -274
66867, 179, 1240, 596, -30100, -73780, -6090, -402, 325, -277
66868, 414, 1699, 674, -24990, -71050, -7630, -414, 324, -277
66869, 696, 1961, 403, -14420, -52990, -7700, -405, 336, -288
66870, 779, 1572, 241, -1610, -15260, -5810, -414, 337, -277
66871, 332, 749, 229, 8470, 21490, -3780, -414, 328, -289
66872, -439, 69, 157, 4060, 3990, -6090, -405, 336, -289
66873, -278, 455, 96, -1890, -25340, -8540, -409, 336, -288
66874, 91, 901, 52, -3150, -33600, -8470, -409, 327, -280
66875, 280, 983, 73, -700, -17850, -6580, -402, 331, -288
66876, 149, 547, 179, -5110, -3710, -4130, -403, 324, -282
66877, -193, 743, 204, -12880, -24430, -5460, -405, 327, -291
66878, -20, 1044, 271, -17850, -39830, -7140, -408, 327, -279
66879, 221, 1108, 415, -16170, -36750, -8120, -412, 321, -286
66880, 376, 927, 552, -7560, -15890, -8260, -402, 315, -297
66881, 658, 771, 377, 16380, 41370, -4060, -405, 325, -282
66882, 635, 673, 249, 26180, 74480, -700, -403, 327, -279
66883, 325, 900, 138, 30870, 96670, 2030, -393, 330, -273
66884, 56, 1335, 54, 27160, 95060, 3290, -396, 325, -273
66885, -128, 1698, 16, 17430, 75810, 2450, -391, 327, -261
66886, -272, 2057, 8, -8750, 9310, -1820, -400, 322, -264
66887, -215, 1675, 76, -18970, -18410, -3430, -403, 318, -261
66888, -182, 1053, 133, -25130, -36330, -4340, -396, 319, -276
66889, -173, 594, 190, -26880, -46620, -4410, -400, 327, -277
66890, 47, 240, 263, -18970, -39340, -2730, -393, 322, -280
66891, 155, 146, 315, -10850, -19250, -1330, -400, 325, -274
66892, 192, 213, 337, -1890, 3500, -70, -391, 318, -283
66893, 269, 448, 318, 5600, 23590, 1470, -400, 325, -276
66894, 334, 811, 260, 10920, 40880, 3150, -397, 313, -277
66895, 180, 1168, 312, 10710, 52290, 4900, -399, 319, -270
66896, 134, 1221, 337, 7700, 39410, 4130, -390, 313, -273
66897, 200, 1320, 319, 7070, 28840, 3080, -405, 316, -273
66898, 330, 1253, 269, 9730, 31360, 2940, -397, 319, -267
66899, 323, 926, 201, 14210, 46200, 3500, -388, 322, -267
66900, -40, 485, 168, 15400, 51800, 3990, -397, 319, -264
66901, -137, 664, 119, 10920, 34580, 3080, -397, 319, -258
66902, -36, 1016, 95, 6510, 18550, 1680, -396, 312, -262
66903, 29, 1284, 116, 2800, 10780, 700, -388, 322, -250
66904, -24, 1434, 246, -5810, -4620, -1820, -390, 312, -265
66905, -5, 1487, 305, -10290, -19180, -3500, -396, 321, -259
66906, 125, 1478, 281, -12040, -30030, -4620, -394, 315, -262
66907, 262, 1309, 241, -10360, -29190, -5180, -394, 322, -255
66908, 215, 918, 264, -6160, -20160, -5320, -391, 318, -267
66909, 88, 433, 229, 3220, -8890, -6650, -396, 316, -268
66910, 188, 610, 167, 8120, -3570, -6790, -388, 318, -264
66911, 288, 705, 131, 12530, 9450, -6020, -394, 310, -264
66912, 203, 638, 141, 14980, 23170, -5180, -387, 312, -259
66913, 26, 664, 149, 14070, 25410, -5040, -397, 321, -250
66914, 68, 1064, 185, 8050, 6160, -6650, -394, 315, -258
66915, 201, 1114, 181, 7560, 7840, -7000, -388, 312, -255
66916, 196, 977, 187, 8540, 18130, -6930, -391, 315, -262
66917, 45, 771, 203, 7980, 22400, -7070, -390, 315, -250
66918, -69, 809, 225, 4060, 910, -8470, -388, 310, -259
66919, 133, 1386, 230, 5740, -3500, -8890, -378, 318, -253
66920, 346, 1719, 203, 10080, 8610, -8190, -378, 310, -264
66921, 308, 1701, 194, 14420, 27930, -7350, -391, 310, -252
66922, 83, 1529, 166, 15120, 37450, -6790, -388, 318, -250
66923, -225, 1007, 58, 3430, 7000, -7490, -378, 309, -255
66924, -137, 918, 41, -2520, -12530, -7630, -391, 310, -252
66925, -23, 864, 36, -5810, -22120, -7070, -382, 316, -243
66926, -41, 726, 67, -6860, -21490, -6370, -379, 319, -256
66927, -130, 523, 112, -7280, -20160, -5810, -381, 315, -256
66928, -73, 611, 256, -5460, -21910, -5740, -384, 313, -253
66929, 169, 907, 294, -560, -13790, -4760, -385, 321, -259
66930, 347, 1204, 255, 6650, 7070, -2590, -388, 310, -259
66931, 310, 1260, 234, 12320, 30170, -210, -373, 319, -246
66932, -251, 1283, 133, 7840, 26600, 560, -385, 306, -265
66933, -322, 1343, 84, -1260, -700, -560, -381, 322, -253
66934, -309, 1297, 65, -9730, -27510, -2030, -379, 313, -262
66935, -231, 1152, 88, -15540, -47390, -2870, -376, 312, -261
66936, -216, 932, 109, -19320, -59430, -3290, -384, 306, -265
66937, -250, 476, 214, -23660, -78680, -4340, -379, 318, -262
66938, -189, 445, 311, -22750, -85190, -5320, -376, 309, -274
66939, 115, 563, 402, -17220, -78540, -5810, -390, 319, -279
66940, 294, 676, 416, -6860, -53130, -5180, -391, 321, -289
66941, 423, 664, 413, 16030, 10640, -1260, -382, 315, -277
66942, 301, 703, 312, 21910, 25410, 630, -391, 325, -283
66943, 185, 1252, 224, 22820, 27370, 1820, -387, 319, -279
66944, 91, 1723, 147, 19320, 22820, 1890, -393, 312, -276
66945, -116, 1772, 136, 12740, 15750, 420, -390, 325, -267
66946, -330, 1173, 145, -5880, -26180, -4060, -384, 322, -268
66947, -244, 829, 115, -13370, -50260, -5460, -384, 316, -279
66948, -103, 612, 85, -16590, -62370, -6090, -403, 318, -279
66949, -16, 546, 83, -16240, -62230, -5880, -385, 325, -300
66950, 12, 536, 163, -14910, -55790, -5740, -390, 327, -288
66951, 74, 1054, 463, -10290, -49630, -7700, -399, 315, -280
66952, 308, 1530, 420, -3640, -40320, -8400, -393, 318, -289
66953, 577, 1518, 330, 5600, -15120, -6860, -390, 315, -288
66954, 509, 1139, 281, 14490, 16590, -4550, -394, 321, -291
66955, 151, 783, 220, 15890, 22890, -2870, -393, 319, -291
66956, -217, 962, 92, 10710, 3990, -4130, -396, 331, -276
66957, -50, 1326, 34, 6370, -8400, -5250, -390, 321, -291
66958, 71, 1401, 51, 3010, -9450, -5250, -388, 324, -276
66959, -31, 1194, 86, -1260, -10850, -4970, -388, 316, -282
66960, -189, 1057, 125, -14420, -43190, -6790, -391, 321, -288
66961, -68, 1251, 109, -18620, -55860, -8050, -394, 315, -288
66962, 30, 1158, 122, -19880, -57750, -9030, -394, 319, -286
66963, 0, 914, 183, -19390, -53900, -9730, -393, 321, -295
66964, -55, 745, 279, -18690, -53130, -10570, -400, 328, -292
66965, 109, 662, 279, -14910, -47250, -12390, -393, 310, -304
66966, 168, 579, 251, -10710, -33250, -12320, -390, 310, -301
66967, 167, 478, 251, -6440, -18900, -11410, -393, 312, -298
66968, 132, 548, 275, -3570, -9800, -10710, -390, 309, -309
66969, 114, 723, 338, 1610, -630, -11270, -402, 306, -307
66970, 374, 1157, 362, 7140, 11200, -11410, -385, 304, -303
66971, 485, 1145, 344, 14770, 33040, -10360, -396, 307, -306
66972, 452, 983, 309, 21560, 54530, -8400, -384, 312, -297
66973, 324, 761, 242, 24990, 66150, -6860, -391, 303, -300
66974, 28, 789, 132, 22470, 58100, -6720, -394, 310, -289
66975, -9, 1178, 103, 19460, 49630, -7350, -390, 316, -297
66976, -35, 1480, 122, 15820, 42910, -8120, -378, 312, -277
66977, -172, 1565, 141, 10150, 33810, -9520, -379, 300, -276
66978, -291, 1519, 155, 2170, 15890, -11620, -384, 306, -283
66979, -109, 1181, 127, -13230, -27440, -15750, -369, 301, -274
66980, -10, 993, 134, -16660, -37100, -16730, -387, 300, -291
66981, 55, 820, 184, -16380, -36330, -17150, -379, 301, -282
66982, 81, 786, 235, -13580, -29120, -17360, -372, 298, -282
66983, 136, 877, 250, -6090, -6930, -17010, -382, 304, -292
66984, 66, 824, 272, -3710, 1890, -17010, -367, 301, -300
66985, -31, 736, 265, -3150, 3920, -17010, -381, 301, -295
66986, 6, 642, 293, -3500, 1960, -17290, -378, 292, -300
66987, 53, 632, 283, -3080, 840, -17220, -376, 294, -298
66988, 150, 554, 292, 2170, 17150, -15960, -379, 301, -295
66989, 126, 681, 290, 5670, 27300, -15120, -375, 303, -294
66990, 102, 1157, 271, 7770, 33460, -14560, -364, 297, -291
66991, 37, 1783, 236, 7560, 36260, -14770, -373, 294, -285
66992, -43, 1980, 237, 4480, 32830, -15680, -369, 295, -303
66993, -150, 1416, 233, -5390, 1260, -19040, -369, 297, -295
66994, -11, 1139, 217, -7980, -12460, -19670, -360, 295, -297
66995, 108, 761, 190, -7560, -14000, -18760, -369, 298, -286
66996, 42, 353, 189, -5040, -6860, -17640, -355, 288, -300
66997, -172, 126, 222, 700, 4130, -16590, -366, 288, -286
66998, -122, 458, 237, 3220, 6790, -16450, -364, 289, -295
66999, 10, 1091, 206, 6090, 14210, -16170, -364, 283, -291
67000, 95, 1589, 182, 7700, 25200, -15120, -363, 297, -292
67001, -20, 1598, 206, 6230, 30450, -15050, -358, 286, -286
67002, -260, 1440, 157, -7350, -6860, -17710, -357, 282, -295
67003, -197, 1281, 146, -14490, -27580, -18620, -361, 295, -288
67004, -224, 891, 177, -18620, -39550, -19110, -357, 286, -301
67005, -253, 477, 184, -20090, -46830, -18760, -364, 285, -297
67006, -191, 278, 195, -19600, -50260, -18200, -354, 279, -313
67007, -11, 514, 337, -13580, -36750, -16590, -354, 271, -313
67008, 76, 716, 419, -8050, -20650, -16030, -355, 276, -306
67009, 116, 998, 512, -630, -1190, -15820, -360, 277, -307
67010, 194, 1301, 456, 7420, 19180, -14630, -355, 279, -315
67011, 139, 1214, 294, 19530, 56630, -10290, -357, 286, -306
67012, -107, 1005, 252, 20440, 60340, -9310, -360, 282, -304
67013, -241, 900, 197, 17080, 49630, -8680, -352, 282, -297
67014, -319, 921, 136, 12530, 34790, -8400, -354, 282, -300
67015, -273, 1060, 89, 8470, 22610, -7560, -348, 274, -292
67016, -315, 1272, 84, 630, 10360, -5810, -351, 280, -291
67017, -431, 1203, 116, -5810, -3010, -6370, -357, 282, -292
67018, -445, 1142, 146, -13230, -22540, -7560, -349, 274, -306
67019, -336, 1004, 221, -18690, -39900, -9030, -349, 271, -303
67020, -95, 876, 349, -18130, -46830, -10010, -352, 279, -316
67021, 329, 766, 322, 1610, -6370, -7420, -355, 277, -303
67022, 298, 524, 293, 13930, 29750, -4060, -348, 276, -301
67023, 47, 358, 261, 21770, 52430, -1540, -358, 274, -298
67024, -232, 492, 162, 22610, 53550, -1050, -351, 280, -295
67025, -350, 1327, 106, 11410, 24850, -2450, -346, 277, -292
67026, -263, 1638, 104, 4760, 12250, -3080, -349, 282, -295
67027, -310, 1536, 125, -1750, 3010, -3780, -351, 274, -295
67028, -320, 1151, 159, -8120, -11060, -4340, -345, 277, -303
67029, -314, 915, 173, -13510, -26950, -5320, -351, 282, -294
67030, 57, 965, 181, -15610, -30940, -4410, -339, 283, -303
67031, 108, 924, 208, -13510, -18550, -2730, -351, 283, -310
67032, -7, 793, 313, -11970, -10220, -1750, -343, 271, -325
67033, -4, 842, 375, -10640, -10780, -1960, -331, 292, -304
67034, 59, 1210, 351, -8120, -9240, -2660, -348, 279, -303
67035, -87, 1266, 230, -700, 20790, -2310, -357, 283, -301
67036, -297, 933, 225, -1190, 22120, -2940, -354, 280, -295
67037, -369, 808, 215, -5810, 7000, -4760, -346, 280, -297
67038, -224, 939, 183, -11060, -12810, -6090, -354, 277, -310
67039, 89, 917, 179, -12670, -15960, -5320, -354, 283, -304
67040, -57, 656, 269, -10430, -6860, -4690, -345, 289, -300
67041, -142, 455, 394, -8190, -4340, -4970, -351, 277, -315
67042, -55, 558, 381, -4340, -2310, -5740, -348, 285, -312
67043, 177, 699, 340, 3010, 12880, -5390, -345, 282, -304
67044, 254, 536, 315, 20580, 61810, -1820, -352, 279, -310
67045, 99, 539, 298, 24990, 72590, -700, -351, 279, -292
67046, 14, 841, 224, 25130, 70560, -210, -334, 286, -285
67047, -53, 1234, 153, 22400, 64260, -70, -348, 276, -282
67048, -164, 1491, 130, 17920, 42910, -2380, -342, 276, -274
67049, -456, 1539, 162, 2380, 20720, -5110, -336, 282, -288
67050, -446, 1402, 176, -6370, -6160, -7700, -336, 280, -282
67051, -264, 1202, 181, -12250, -28630, -9660, -333, 274, -282
67052, -129, 960, 186, -14210, -38780, -10220, -340, 276, -291
67053, -69, 374, 267, -9940, -28840, -9590, -339, 267, -291
67054, -63, 260, 332, -5880, -20230, -9450, -339, 273, -286
67055, 4, 380, 336, -560, -10010, -9100, -342, 268, -285
67056, 103, 622, 290, 5810, 7140, -8190, -345, 279, -297
67057, 63, 774, 292, 11410, 27020, -6650, -334, 264, -291
67058, -172, 889, 327, 14140, 35490, -6370, -333, 265, -291
67059, -76, 1180, 291, 12600, 27790, -7000, -346, 274, -273
67060, -5, 1656, 214, 11830, 26810, -7350, -339, 274, -285
67061, -11, 1979, 156, 10360, 29750, -7210, -333, 267, -282
67062, -182, 1948, 148, -2310, 3430, -10080, -336, 265, -277
67063, -425, 1276, 149, -11620, -27510, -12460, -331, 267, -273
67064, -298, 952, 137, -17780, -52920, -13580, -336, 262, -288
67065, -88, 728, 133, -18550, -60410, -13300, -325, 267, -288
67066, 1, 408, 182, -14910, -49210, -12250, -343, 268, -292
67067, -64, 38, 342, -1190, -18410, -11480, -331, 262, -285
67068, 105, 312, 305, 7770, -280, -10990, -340, 271, -304
67069, 127, 647, 248, 17360, 27160, -9170, -330, 253, -294
67070, 96, 882, 209, 24010, 53480, -7490, -334, 258, -291
67071, -112, 1109, 173, 24150, 65660, -6860, -333, 261, -286
67072, -428, 1880, 116, 3430, 21980, -10500, -330, 265, -279
67073, -343, 1973, 109, -9100, -9660, -12390, -331, 262, -283
67074, -274, 1667, 107, -18200, -31290, -13650, -324, 255, -285
67075, -337, 1100, 199, -22610, -45780, -14560, -330, 258, -292
67076, -288, 826, 311, -17570, -62720, -15330, -321, 258, -289
67077, 128, 930, 256, -8190, -39760, -14350, -340, 255, -298
67078, 78, 649, 209, 1680, -6650, -12460, -339, 253, -292
67079, -131, 317, 216, 7840, 15050, -11970, -330, 258, -298
67080, -402, 258, 210, 7840, 15820, -12390, -324, 264, -297
67081, -221, 1040, 110, 1890, -1750, -13860, -336, 259, -289
67082, -20, 1345, 95, 1400, 7910, -12810, -325, 249, -298
67083, -88, 1286, 185, 630, 18830, -11410, -324, 256, -288
67084, -210, 1098, 310, -1610, 13860, -11550, -322, 250, -301
67085, -174, 1131, 301, -3570, 0, -12250, -327, 258, -298
67086, -9, 1173, 158, 1540, 14420, -9940, -322, 258, -298
67087, -164, 776, 155, 4340, 27930, -8260, -319, 256, -291
67088, -421, 535, 183, 3080, 24360, -8750, -325, 255, -304
67089, -497, 605, 188, -1400, 6860, -10150, -319, 255, -300
67090, -330, 905, 125, -4550, -5460, -9870, -309, 238, -297
67091, -53, 1027, 161, -2730, 6510, -8050, -321, 255, -292
67092, -178, 801, 230, -2380, 12110, -7350, -319, 246, -297
67093, -278, 767, 289, -4130, 5250, -8330, -322, 252, -295
67094, -226, 1083, 265, -5040, -3920, -9520, -322, 252, -300
67095, 13, 1448, 197, 1190, 15470, -8540, -319, 253, -301
67096, -139, 1155, 223, 4200, 28350, -8190, -315, 250, -303
67097, -334, 824, 241, 3780, 23940, -9380, -325, 252, -292
67098, -329, 722, 191, 1400, 9730, -10570, -313, 238, -306
67099, -188, 737, 154, 490, 1890, -10570, -315, 250, -297
67100, -30, 582, 185, 5950, 16730, -8260, -312, 244, -295
67101, -132, 575, 205, 8540, 23660, -7910, -312, 247, -292
67102, -198, 797, 190, 9380, 23310, -8470, -321, 252, -294
67103, -268, 1223, 143, 8750, 19600, -9590, -312, 253, -294
67104, -315, 1309, 152, 3220, 5880, -11900, -319, 247, -297
67105, -355, 988, 190, -1750, -10920, -13650, -319, 241, -288
67106, -338, 748, 230, -5460, -30030, -15680, -313, 244, -297
67107, -141, 699, 251, -5110, -40110, -16590, -315, 243, -295
67108, 69, 697, 251, 630, -29610, -16240, -322, 247, -298
67109, -17, 360, 242, 16730, 19180, -14000, -309, 252, -289
67110, -190, 365, 209, 20020, 28000, -14140, -312, 249, -291
67111, -355, 682, 169, 19110, 23730, -15680, -309, 250, -285
67112, -366, 1201, 148, 15330, 14420, -17220, -309, 252, -295
67113, -357, 1582, 137, 10220, 6580, -18830, -306, 247, -292
67114, -510, 1450, 125, -4900, -22330, -22680, -312, 246, -285
67115, -520, 1316, 117, -14000, -46550, -24990, -313, 247, -289
67116, -464, 1225, 100, -21630, -68670, -26670, -304, 252, -295
67117, -245, 1143, 114, -26670, -83090, -27020, -309, 249, -312
67118, -151, 727, 375, -25900, -85610, -28070, -310, 241, -321
67119, -16, 821, 366, -19880, -75110, -28770, -315, 234, -324
67120, 2, 1039, 313, -10780, -52010, -28210, -312, 237, -321
67121, -39, 1035, 279, -1750, -23030, -27090, -315, 237, -327
67122, -231, 860, 277, 3780, -1820, -26530, -309, 229, -324
67123, -486, 742, 201, 1120, -4900, -28140, -315, 238, -322
67124, -336, 801, 179, -1890, -13300, -28490, -310, 223, -333
67125, -170, 864, 154, -2800, -12600, -26600, -315, 226, -321
67126, -165, 809, 154, -1750, -2450, -24430, -309, 229, -324
67127, -266, 695, 177, -1260, 3920, -22260, -300, 231, -322
67128, -418, 1084, 201, -3920, -1190, -21350, -303, 232, -325
67129, -438, 1442, 163, -5880, -4410, -21350, -303, 223, -328
67130, -509, 1522, 142, -7980, -4970, -21350, -301, 211, -331
67131, -551, 1278, 214, -10710, -7000, -21840, -295, 220, -327
67132, -467, 808, 262, -14560, -23100, -22820, -300, 214, -330
67133, -360, 630, 243, -12880, -25060, -21700, -304, 217, -355
67134, -264, 407, 254, -8120, -18410, -19320, -294, 219, -337
67135, -233, 226, 296, -1820, -10220, -16940, -306, 216, -337
67136, -274, 258, 282, 4550, -4550, -15050, -300, 207, -339
67137, -322, 697, 215, 13720, 7770, -13230, -307, 211, -334
67138, -332, 921, 215, 15540, 18830, -13160, -294, 210, -339
67139, -365, 1138, 201, 14560, 30100, -13580, -291, 216, -331
67140, -379, 1276, 200, 11200, 36820, -13650, -294, 201, -336
67141, -396, 1286, 191, 6440, 36750, -13160, -294, 204, -334
67142, -368, 840, 183, -1540, 17010, -11130, -289, 208, -334
67143, -321, 597, 203, -3010, 8890, -10080, -298, 201, -330
67144, -239, 480, 247, -2310, 7280, -9310, -295, 201, -333
67145, -174, 421, 314, 770, 12460, -8750, -291, 207, -334
67146, -83, 678, 335, 14980, 35420, -6860, -294, 211, -333
67147, -30, 941, 307, 23870, 54180, -5320, -289, 205, -318
67148, -4, 1166, 261, 31080, 76160, -3430, -288, 205, -318
67149, -155, 1482, 205, 34090, 94920, -2310, -283, 205, -321
67150, -404, 1645, 157, 31570, 99820, -2240, -283, 199, -307
67151, -593, 1473, 11, 15470, 61670, -4760, -280, 211, -295
67152, -617, 1389, 10, 6860, 32480, -6580, -276, 207, -291
67153, -565, 1295, -5, -280, 4620, -8330, -280, 208, -289
67154, -469, 1117, 37, -5670, -15960, -9940, -285, 220, -301
67155, -359, 880, 56, -9380, -35560, -11550, -277, 198, -297
67156, -183, 681, 100, -12320, -34790, -12040, -280, 196, -300
67157, -122, 621, 146, -11200, -26740, -12950, -283, 202, -300
67158, -48, 589, 174, -8330, -14280, -14070, -285, 204, -313
67159, 1, 576, 197, -3990, 1470, -15330, -285, 196, -300
67160, -59, 548, 199, 5390, 23870, -18130, -285, 202, -310
67161, -115, 506, 170, 9520, 32900, -19600, -279, 199, -304
67162, -84, 500, 168, 13090, 39830, -21560, -276, 199, -300
67163, -143, 642, 132, 15960, 43470, -23310, -279, 187, -306
67164, -170, 895, 114, 17640, 43120, -25550, -277, 199, -294
67165, -167, 1281, 73, 16450, 35070, -33040, -276, 193, -294
67166, -183, 1445, 76, 13790, 32200, -37870, -273, 198, -291
67167, -57, 1560, 60, 10290, 27650, -42070, -265, 187, -283
67168, -61, 1369, 27, 6930, 21350, -45780, -261, 187, -285
67169, -29, 1069, 0, 3570, 7560, -51730, -273, 178, -283
67170, -37, 685, 42, 3780, 6160, -54530, -262, 175, -277
67171, -100, 617, 19, 5390, 11270, -56630, -255, 169, -289
67172, -185, 657, 3, 7490, 17220, -57610, -265, 180, -282
67173, -285, 741, 0, 9030, 20650, -59640, -252, 166, -285
67174, -296, 1102, -45, 7980, 21980, -68460, -253, 171, -297
67175, -198, 1256, -66, 5390, 17150, -73010, -253, 153, -280
67176, -105, 1222, -48, 2590, 11760, -77560, -252, 157, -292
67177, -57, 1044, -30, -70, 7280, -80570, -252, 153, -294
67178, -64, 799, -6, -2240, 4060, -83720, -256, 153, -291
67179, -122, 471, 4, -4130, 210, -89530, -240, 145, -291
67180, -99, 392, 22, -3150, 1610, -92820, -243, 133, -294
67181, -121, 349, 36, -1050, 6510, -96880, -235, 132, -300
67182, -156, 392, 36, 1260, 11480, -101290, -243, 129, -306
67183, -238, 506, 16, 5320, 18970, -112840, -222, 109, -304
67184, -271, 759, -22, 6370, 20860, -118790, -229, 111, -306
67185, -213, 769, -40, 6930, 20790, -124740, -222, 106, -294
67186, -201, 713, -57, 6720, 19320, -129990, -219, 90, -313
67187, -152, 646, -89, 6160, 18200, -134750, -225, 85, -310
67188, -179, 553, -96, 4480, 18270, -143010, -210, 72, -312
67189, -230, 515, -112, 3920, 19110, -147280, -220, 63, -312
67190, -227, 473, -115, 3780, 20230, -151760, -208, 52, -310
67191, -254, 420, -132, 3990, 21980, -156380, -207, 51, -316
67192, -177, 290, -157, 4970, 24430, -160440, -192, 31, -321
67193, -106, 154, -312, 11970, 36400, -166880, -205, 22, -319
67194, -434, 153, -395, 16940, 44170, -171220, -183, 13, -316
67195, -719, 81, -377, 21070, 51240, -177940, -198, 1, -322
67196, -767, -7, -354, 23660, 57050, -186200, -195, -13, -315
67197, -494, -41, -329, 25760, 65520, -198870, -190, -27, -316
67198, -923, 447, -383, 26250, 70140, -205030, -198, -49, -318
67199, -1828, 873, -451, 26320, 75880, -216300, -196, -55, -321
67200, -1530, 854, -467, 25550, 80570, -229320, -187, -73, -318
67201, -300, 282, -422, 25130, 88900, -237790, -187, -82, -318
67202, -583, 237, -382, 22960, 75250, -241570, -178, -96, -324
67203, -829, 157, -294, 20300, 55230, -246050, -193, -124, -318
67204, -835, -104, -213, 15960, 34090, -250600, -192, -141, -324
67205, -384, -248, -223, 12390, 22680, -257390, -202, -144, -312
67206, -3997, -4, 2250, -50890, 159040, -187880, -178, -157, -223
67207, -3997, -475, -3997, 92680, -272860, 284340, -183, -114, -177
67208, -3985, 1471, 1409, -93800, -90020, 146370, -178, -109, -180
67209, 1035, -2646, -2211, 840, -1332240, 94080, -165, -91, -274
67210, 1123, 2320, 2968, -35770, 536410, -91980, -174, -103, -219
67211, 1194, 3112, 3997, 4970, 99960, -29470, -178, -106, -261
67212, 593, -2452, -3997, -25760, 34440, 36540, -169, -108, -241
67213, -481, 2915, 3997, 54670, -211750, -42840, -172, -102, -255
67214, -717, -1762, -3997, -58520, 331800, 38360, -177, -111, -265
67215, -743, 2200, 3218, 57400, -384650, -64470, -172, -112, -238
67216, -1374, 2109, 1840, 35210, -247730, -45010, -178, -111, -264
67217, -1632, 29, -2422, -31920, 239260, 39270, -186, -111, -246
67218, -651, 331, 1242, 28910, -239400, -22820, -169, -94, -258
67219, -964, -277, -682, -28560, 158760, 23870, -178, -99, -243
67220, -512, 394, 484, 12950, -157080, -24640, -174, -103, -252
67221, -779, 407, 626, 10710, -61390, -14630, -175, -108, -255
67222, -1772, 312, -483, -14840, 117950, 15890, -180, -112, -247
67223, -1103, 47, 106, 10080, -115710, -10290, -175, -112, -262
67224, -94, 374, -50, 1190, -4480, -210, -174, -109, -256
67225, -1465, 510, -566, 2800, -10500, -490, -171, -111, -258
67226, -646, 233, 223, 2730, -37310, -2590, -175, -111, -259
67227, -724, 446, -60, -1610, 17080, 280, -180, -96, -253
67228, -1103, 282, -236, -1610, 8750, 1120, -168, -100, -249
67229, -1085, 419, -21, -490, 140, -490, -181, -117, -249
67230, -788, 353, 101, -420, 5390, -140, -171, -114, -261
67231, -978, 353, -181, 350, 490, 70, -178, -111, -264
67232, -974, 341, 59, -70, 6580, 280, -175, -118, -247
67233, -929, 350, -295, 630, -7560, -280, -181, -111, -259
67234, -938, 304, 89, -420, 11970, 910, -169, -103, -250
67235, -816, 298, 243, 280, -2240, -420, -187, -106, -253
67236, -944, 420, -360, -770, -560, -350, -175, -112, -255
67237, -956, 260, 166, -840, 8680, 1050, -177, -100, -247
67238, -1030, 388, -376, 490, -6300, -700, -184, -114, -256
67239, -955, 464, -296, 70, -490, -560, -172, -103, -246
67240, -888, 272, 125, 70, 1610, 350, -172, -106, -256
67241, -1032, 415, -320, -840, 4550, 350, -177, -100, -252
67242, -894, 235, 96, 700, -5600, -350, -171, -114, -252
67243, -999, 420, -288, -770, 4620, 70, -171, -103, -249
67244, -979, 397, -229, -1260, 9170, 490, -166, -112, -261
67245, -919, 273, 37, 700, -4900, -140, -180, -109, -259
67246, -1014, 366, -221, -770, 7140, 490, -168, -106, -249
67247, -880, 316, -9, 1330, -9310, -770, -175, -111, -253
67248, -950, 383, -132, -840, 7700, 280, -174, -96, -259
67249, -993, 331, -108, -1400, 10080, 840, -165, -109, -271
67250, -937, 326, -113, 980, -9170, -700, -163, -108, -244
67251, -941, 332, -56, -630, 7000, 560, -177, -111, -253
67252, -901, 374, -124, 1050, -8330, -980, -178, -103, -262
67253, -969, 359, -179, 420, -4900, -490, -172, -117, -259
67254, -952, 293, -13, -560, 5250, 630, -171, -115, -255
67255, -937, 382, -187, 560, -6580, -700, -180, -106, -261
67256, -899, 314, 27, -420, 4270, 210, -172, -111, -256
67257, -957, 387, -196, 280, -2800, -560, -174, -106, -258
67258, -984, 373, -218, 140, -2100, -280, -172, -105, -259
67259, -899, 301, 30, 70, 420, 70, -180, -106, -253
67260, -953, 395, -200, 70, -560, -350, -180, -105, -258
67261, -899, 303, 28, -70, 490, -70, -171, -114, -259
67262, -992, 370, -201, -350, 1960, 0, -169, -105, -261
67263, -963, 374, -177, -140, 1470, 0, -177, -115, -255
67264, -888, 321, 0, 350, -2660, -280, -172, -108, -252
67265, -970, 368, -162, -350, 3990, 140, -177, -103, -258
67266, -920, 314, -30, 350, -2940, -280, -183, -111, -261
67267, -907, 331, -46, 490, -4690, -420, -175, -114, -255
67268, -950, 354, -115, -490, 4410, 210, -177, -99, -247
67269, -915, 338, -68, 490, -3990, -560, -172, -114, -249
67270, -965, 334, -101, -560, 5040, 280, -180, -111, -255
67271, -934, 339, -93, 420, -4410, -350, -180, -114, -250
67272, -921, 355, -105, 420, -3990, -490, -175, -96, -256
67273, -942, 330, -63, -420, 4340, 210, -178, -109, -252
67274, -944, 352, -125, 350, -3290, -420, -168, -109, -258
67275, -943, 319, -51, -420, 3430, 280, -175, -105, -252
67276, -941, 358, -132, -210, 2730, 210, -172, -105, -259
67277, -946, 362, -141, 210, -1960, -350, -175, -108, -253
67278, -932, 317, -37, -210, 2170, 140, -180, -106, -256
67279, -957, 360, -146, 140, -1330, -210, -180, -105, -253
67280, -923, 319, -33, -70, 980, 70, -177, -106, -253
67281, -920, 321, -35, 0, 560, 0, -175, -115, -262
67282, -959, 357, -142, -70, 350, -140, -178, -100, -259
67283, -924, 321, -40, 0, -210, -70, -180, -102, -246
67284, -957, 355, -135, -140, 770, -70, -174, -102, -255
67285, -919, 327, -44, 140, -840, -140, -186, -114, -259
67286, -923, 330, -55, 140, -1190, -210, -178, -111, -253
67287, -957, 347, -120, -140, 1750, 70, -174, -112, -252
67288, -925, 332, -62, 210, -1680, -210, -174, -108, -262
67289, -952, 345, -109, -210, 1960, 70, -171, -106, -249
67290, -925, 337, -71, -140, 2310, 70, -181, -112, -256
67291, -931, 339, -82, 210, -1890, -280, -174, -105, -249
67292, -948, 338, -92, -280, 2240, 140, -175, -114, -256
67293, -931, 343, -89, 210, -1890, -210, -174, -112, -259
67294, -943, 336, -85, -210, 2170, 140, -177, -109, -259
67295, -941, 333, -79, -280, 1960, 70, -180, -105, -250
67296, -939, 347, -103, 210, -1610, -280, -181, -105, -259
67297, -938, 332, -73, -140, 1610, 140, -175, -102, -255
67298, -940, 348, -107, 210, -1190, -210, -183, -109, -256
67299, -934, 332, -68, -140, 1470, 70, -174, -108, -259
67300, -935, 331, -66, -140, 1190, 0, -172, -105, -247
67301, -945, 349, -113, 70, -560, -140, -168, -111, -255
67302, -931, 331, -65, -70, 700, 0, -184, -105, -250
67303, -945, 348, -112, 0, -280, -140, -178, -105, -253
67304, -931, 332, -66, 0, 70, -70, -175, -111, -261
67305, -932, 332, -67, 0, 70, -70, -186, -112, -252
67306, -947, 346, -109, -70, 350, -70, -184, -114, -258
67307, -930, 334, -70, 70, -210, -70, -177, -109, -255
67308, -946, 346, -106, 0, 560, -70, -169, -112, -259
67309, -947, 344, -103, -70, 700, 0, -171, -102, -250
67310, -932, 337, -77, 140, -560, -140, -174, -109, -243
67311, -945, 342, -99, -70, 910, 0, -174, -120, -252
67312, -933, 339, -80, 70, -630, -140, -178, -109, -253
67313, -944, 341, -96, -70, 980, 0, -180, -105, -256
67314, -944, 339, -91, 0, 1050, 0, -169, -112, -259
67315, -936, 340, -86, 70, -630, -140, -180, -106, -255
67316, -942, 339, -90, 0, 980, 0, -177, -112, -250
67317, -936, 342, -90, 70, -560, -140, -178, -112, -255
67318, -941, 338, -92, 70, -630, -140, -180, -117, -265
67319, -939, 338, -84, -140, 770, 0, -177, -105, -253
67320, -938, 342, -93, 70, -490, -140, -168, -111, -259
67321, -938, 337, -83, 0, 770, 0, -174, -117, -258
67322, -940, 343, -95, 70, -350, -140, -175, -108, -255
67323, -941, 343, -96, 70, -210, -70, -165, -109, -259
67324, -937, 337, -82, -70, 490, 0, -178, -111, -259
67325, -940, 343, -96, 0, -140, -140, -177, -108, -247
67326, -939, 336, -82, 0, 490, 0, -171, -111, -255
67327, -941, 342, -96, -70, -70, -140, -183, -108, -258
67328, -941, 343, -96, 0, 0, -70, -177, -105, -265
67329, -936, 337, -82, 0, 280, 0, -168, -117, -255
67330, -942, 342, -96, -70, 70, -70, -177, -100, -253
67331, -937, 337, -82, 0, 70, -70, -178, -112, -253
67332, -936, 338, -83, 0, 210, -70, -177, -103, -256
67333, -942, 341, -95, 0, 280, -70, -177, -102, -262
67334, -938, 338, -85, 0, 0, -70, -169, -96, -258
67335, -941, 341, -92, 0, 210, -70, -175, -105, -252
67336, -937, 339, -84, 0, 140, -70, -171, -103, -259
67337, -936, 339, -85, 70, -70, -70, -180, -106, -250
67338, -942, 340, -92, 0, 420, -70, -174, -105, -258
67339, -937, 339, -86, 0, 0, -70, -174, -108, -270
67340, -940, 340, -91, 0, 280, -70, -169, -112, -262
67341, -936, 340, -86, 0, -70, -70, -171, -103, -253
67342, -937, 340, -87, 0, -70, -70, -184, -111, -261
67343, -940, 340, -89, 0, 350, -70, -177, -105, -258
67344, -938, 340, -88, 70, 70, -70, -171, -109, -256
67345, -939, 340, -89, -70, 420, 0, -174, -111, -256
67346, -939, 339, -90, 0, 280, 0, -177, -106, -259
67347, -938, 340, -89, 70, -70, -70, -175, -114, -256
67348, -940, 340, -88, 0, 280, -70, -171, -103, -264
67349, -939, 340, -89, 0, 70, -70, -172, -112, -247
67350, -940, 339, -89, 0, 420, 0, -178, -108, -256
67351, -940, 340, -88, -70, 350, -70, -169, -105, -258
67352, -938, 340, -89, 0, -70, -140, -169, -111, -261
67353, -939, 340, -88, -70, 280, -70, -183, -109, -256
67354, -939, 340, -90, 0, -70, -140, -178, -115, -259
67355, -939, 339, -88, 0, 210, -70, -174, -108, -258
67356, -938, 339, -87, 0, 280, -70, -166, -100, -258
67357, -939, 341, -89, 0, 70, -70, -181, -111, -259
67358, -938, 339, -88, 0, 280, -70, -177, -106, -255
67359, -939, 341, -90, 0, 140, -70, -174, -103, -253
67360, -939, 340, -90, 0, 140, -70, -180, -111, -256
67361, -939, 340, -88, 0, 210, -70, -175, -111, -259
67362, -939, 340, -90, 0, 140, -70, -183, -108, -252
67363, -939, 339, -87, 0, 210, -70, -169, -109, -247
67364, -940, 340, -90, -70, 140, -70, -174, -109, -259
67365, -939, 340, -90, 0, 140, -70, -172, -118, -256
67366, -938, 340, -87, 0, 210, -70, -169, -100, -252
67367, -940, 340, -91, 0, 140, -70, -166, -118, -264
67368, -939, 339, -88, 0, 210, -70, -180, -102, -250
67369, -939, 341, -89, 0, 140, -70, -178, -109, -255
67370, -940, 340, -91, -70, 210, 0, -183, -109, -256
67371, -938, 339, -88, 0, 140, -70, -181, -109, -256
67372, -940, 339, -90, 0, 210, -70, -175, -111, -262
67373, -938, 340, -88, 0, 140, -140, -181, -109, -258
67374, -939, 340, -87, 0, 70, -140, -172, -106, -259
67375, -939, 340, -89, 0, 210, -70, -169, -111, -249
67376, -938, 340, -89, 70, 140, -70, -174, -109, -261
67377, -938, 340, -89, 0, 140, -70, -172, -105, -258
67378, -940, 339, -88, 0, 140, -70, -190, -112, -255
67379, -938, 340, -88, 0, 140, -70, -172, -105, -256
67380, -938, 339, -88, 0, 140, -140, -178, -109, -253
67381, -939, 340, -89, 0, 140, -70, -171, -115, -256
67382, -938, 340, -89, 0, 140, -70, -172, -105, -253
67383, -939, 340, -89, 0, 140, -70, -177, -112, -253
67384, -939, 339, -89, 0, 140, -70, -177, -105, -265
67385, -939, 340, -88, -70, 140, -70, -175, -105, -261
67386, -938, 339, -89, 0, 210, -70, -177, -111, -261
67387, -940, 340, -89, 0, 140, -70, -175, -109, -250
67388, -939, 339, -90, 0, 140, -70, -177, -114, -258
67389, -939, 340, -88, 70, 70, -70, -184, -114, -250
67390, -939, 339, -89, 0, 350, 0, -174, -109, -247
67391, -938, 340, -88, 0, 70, -70, -180, -108, -247
67392, -939, 340, -89, 70, 210, -70, -178, -109, -261
67393, -939, 340, -88, 0, 280, -70, -165, -105, -244
67394, -940, 341, -89, -70, 280, -70, -174, -99, -256
67395, -939, 340, -88, 70, 140, -70, -171, -109, -252
67396, -939, 340, -88, 0, 140, -70, -175, -120, -264
67397, -939, 339, -88, 0, 140, -70, -168, -97, -250
67398, -939, 339, -87, 70, 140, -70, -177, -106, -247
67399, -939, 340, -89, 70, 210, -70, -178, -109, -246
67400, -939, 340, -88, 0, 210, -70, -171, -115, -247
67401, -940, 340, -89, 70, 140, -70, -177, -111, -253
67402, -939, 340, -88, 0, 140, 0, -177, -112, -259
67403, -940, 339, -88, 0, 140, 0, -178, -102, -249
67404, -939, 340, -88, 0, 210, -70, -168, -106, -252
67405, -939, 340, -89, 0, 210, -70, -183, -112, -253
67406, -938, 340, -88, 0, 140, -70, -180, -109, -261
67407, -939, 340, -89, 0, 140, -70, -187, -108, -261
67408, -939, 340, -90, 70, 140, -70, -174, -112, -259
67409, -938, 340, -88, 0, 140, -70, -171, -105, -249
67410, -938, 340, -89, 0, 140, -70, -187, -114, -249
67411, -940, 339, -88, -70, 210, -70, -178, -99, -259
67412, -939, 339, -89, 0, 140, -70, -175, -112, -256
67413, -939, 340, -89, 70, 140, -70, -174, -105, -258
67414, -939, 340, -90, -70, 140, -70, -166, -112, -250
67415, -938, 339, -88, 70, 70, -140, -178, -115, -252
67416, -938, 340, -88, 0, 140, -70, -168, -114, -258
67417, -939, 340, -88, 0, 210, 0, -171, -109, -255
67418, -939, 340, -89, 70, 210, -70, -166, -100, -258
67419, -940, 339, -89, 0, 210, -70, -178, -112, -253
67420, -939, 339, -89, -70, 140, -70, -169, -112, -255
67421, -939, 339, -88, 0, 140, -70, -175, -106, -247
67422, -939, 340, -89, 0, 210, 0, -178, -108, -262
67423, -939, 340, -89, 0, 210, -70, -178, -94, -255
67424, -939, 340, -89, 70, 210, -70, -174, -106, -258
67425, -939, 340, -88, 0, 140, -70, -177, -112, -252
67426, -938, 340, -89, 0, 70, -70, -177, -115, -256
67427, -939, 340, -89, 70, 280, -70, -171, -100, -253
67428, -939, 340, -89, 0, 140, -70, -174, -111, -258
67429, -939, 340, -89, 0, 140, -70, -177, -118, -255
67430, -939, 340, -88, -70, 210, -70, -186, -115, -258
67431, -939, 341, -88, 0, 140, -70, -178, -102, -259
67432, -939, 340, -89, 0, 280, -70, -175, -112, -255
67433, -938, 340, -89, 0, 140, -70, -180, -115, -264
67434, -938, 340, -89, 0, 210, 0, -172, -109, -255
67435, -937, 338, -89, 0, 140, -70, -174, -106, -250
67436, -941, 340, -89, -70, 420, -70, -175, -106, -253
67437, -946, 344, -90, 0, 70, -70, -181, -108, -255
67438, -934, 340, -87, 70, -280, -70, -174, -114, -253
67439, -935, 339, -92, 0, 350, 0, -177, -112, -253
67440, -937, 339, -89, 0, -210, -70, -169, -112, -256
67441, -937, 340, -88, 0, 350, 0, -172, -102, -253
67442, -941, 341, -90, 0, 210, -70, -169, -109, -259
67443, -938, 340, -89, 0, 140, -140, -174, -111, -265
67444, -939, 339, -88, 0, 140, -70, -171, -109, -253
67445, -938, 340, -88, 0, 140, -70, -177, -106, -258
67446, -938, 341, -88, 0, 210, -70, -180, -109, -253
67447, -941, 340, -89, -70, 210, -70, -175, -102, -265
67448, -939, 340, -90, 0, 70, -70, -180, -105, -256
67449, -939, 341, -89, 0, 140, -70, -178, -109, -253
67450, -938, 339, -89, 0, 140, 0, -172, -109, -249
67451, -939, 340, -87, 0, 140, -70, -178, -105, -249
67452, -939, 339, -88, 70, 140, -70, -174, -114, -262
67453, -938, 339, -89, 0, 210, -70, -168, -109, -246
67454, -939, 340, -89, 0, 140, -70, -172, -108, -259
67455, -939, 340, -89, 0, 140, -140, -175, -109, -253
67456, -939, 340, -89, 0, 140, -70, -174, -108, -255
67457, -939, 340, -89, 0, 140, -70, -174, -106, -258
67458, -939, 340, -89, 0, 140, -70, -190, -109, -258
67459, -939, 339, -88, 0, 70, -70, -175, -117, -252
67460, -939, 340, -88, -70, 210, -70, -178, -109, -253
67461, -939, 340, -88, 0, 70, -70, -174, -106, -249
67462, -938, 340, -88, 0, 140, -70, -174, -109, -255
67463, -939, 340, -88, -70, 210, -70, -169, -108, -250
67464, -939, 340, -89, -70, 210, -70, -177, -111, -259
67465, -939, 340, -89, 0, 140, -70, -174, -102, -256
67466, -939, 340, -88, 0, 210, -70, -169, -102, -258
67467, -940, 339, -89, 0, 140, -70, -178, -106, -253
67468, -939, 340, -88, 0, 210, -70, -171, -114, -261
67469, -939, 340, -88, 0, 140, -70, -178, -103, -258
67470, -939, 339, -89, 0, 210, -70, -180, -105, -256
67471, -939, 340, -90, 70, 140, -70, -175, -112, -262
67472, -939, 339, -88, 0, 210, -70, -181, -102, -256
67473, -938, 340, -88, -70, 140, -70, -174, -105, -261
67474, -940, 340, -89, 70, 280, -70, -180, -102, -258
67475, -938, 340, -88, 70, 70, -70, -172, -105, -259
67476, -939, 340, -90, 0, 70, -70, -165, -102, -252
67477, -940, 340, -89, 0, 140, -70, -169, -106, -256
67478, -938, 340, -88, -70, 140, -70, -183, -106, -255
67479, -940, 339, -89, 0, 350, -70, -172, -97, -256
67480, -939, 339, -88, 0, 140, -70, -184, -112, -262
67481, -939, 340, -89, 0, 140, -70, -172, -111, -261
67482, -939, 339, -88, 0, 70, -70, -178, -105, -256
67483, -939, 339, -89, 0, 210, -70, -172, -103, -256
67484, -939, 340, -89, 0, 140, -70, -177, -103, -253
67485, -939, 340, -87, 70, 140, -70, -171, -108, -253
67486, -939, 340, -88, 0, 140, -70, -174, -103, -258
67487, -938, 340, -88, -70, 140, -70, -168, -106, -252
67488, -939, 340, -88, 0, 140, -70, -172, -118, -262
67489, -939, 340, -87, -70, 210, -70, -169, -100, -255
67490, -939, 340, -89, 0, 140, -70, -175, -111, -253
67491, -939, 339, -88, 0, 280, -70, -175, -111, -261
67492, -939, 339, -89, 0, 140, -70, -168, -111, -253
67493, -938, 340, -88, -70, 140, -70, -174, -105, -256
67494, -940, 340, -89, 0, 210, -70, -171, -112, -253
67495, -939, 340, -90, 0, 280, -70, -172, -105, -252
67496, -939, 340, -89, 0, 140, -70, -181, -118, -259
67497, -938, 340, -88, 0, 140, 0, -174, -105, -252
67498, -940, 339, -89, 0, 210, -70, -174, -121, -256
67499, -938, 340, -88, 0, 140, -70, -174, -117, -256
67500, -939, 340, -89, 0, 140, -70, -172, -108, -265
67501, -939, 340, -88, 0, 140, -70, -178, -99, -253
67502, -939, 340, -89, 70, 70, -70, -181, -106, -255
67503, -939, 340, -88, 70, 210, 0, -177, -102, -258
67504, -940, 340, -89, -70, 210, -70, -178, -112, -256
67505, -940, 340, -89, 0, 280, -70, -175, -102, -252
67506, -938, 340, -88, 0, 0, -70, -172, -108, -262
67507, -939, 340, -88, 0, 210, -70, -177, -108, -250
67508, -939, 340, -89, 0, 140, -70, -169, -112, -255
67509, -939, 340, -90, 70, 140, -70, -175, -106, -246
67510, -939, 340, -88, 0, 70, -70, -172, -111, -255
67511, -938, 340, -88, 0, 140, -70, -178, -109, -243
67512, -939, 340, -88, 0, 210, -70, -172, -109, -259
67513, -938, 340, -87, 0, 140, -70, -177, -108, -259
67514, -939, 340, -88, 0, 210, 0, -180, -103, -255
67515, -940, 340, -88, 0, 140, -70, -174, -112, -258
67516, -939, 340, -89, 0, 70, -70, -171, -109, -264
67517, -940, 340, -88, 0, 210, -70, -174, -108, -253
67518, -938, 340, -89, 0, 210, -70, -175, -106, -256
67519, -939, 339, -89, 70, 140, 0, -178, -111, -259
67520, -940, 341, -88, 0, 210, -70, -166, -111, -255
67521, -939, 342, -89, 0, 70, 0, -181, -105, -252
67522, -937, 339, -87, 0, 140, -70, -178, -117, -258
67523, -941, 339, -88, 0, 140, -70, -178, -109, -244
67524, -938, 340, -88, 0, 70, -70, -174, -109, -258
67525, -937, 340, -88, 0, 280, -70, -174, -102, -247
67526, -941, 340, -90, 70, 210, -70, -175, -108, -252
67527, -939, 341, -89, 0, 70, -70, -181, -105, -256
67528, -939, 340, -88, 0, 70, -70, -172, -106, -258
67529, -939, 340, -89, 70, 70, -70, -174, -106, -258
67530, -939, 340, -88, 70, 140, -70, -175, -114, -252
67531, -940, 340, -89, -70, 70, -70, -177, -108, -249
67532, -939, 340, -89, 0, 70, 0, -172, -108, -253
67533, -940, 340, -89, 0, 210, -70, -174, -105, -250
67534, -939, 340, -88, 0, 0, -70, -168, -105, -264
67535, -939, 340, -87, -70, 210, -140, -183, -105, -258
67536, -940, 340, -89, 0, 140, -140, -172, -114, -253
67537, -940, 341, -90, 0, 280, -70, -177, -109, -252
67538, -939, 340, -89, 0, 210, -70, -175, -114, -267
67539, -940, 339, -89, 70, 140, -70, -175, -108, -246
67540, -938, 340, -88, 0, 140, -70, -177, -115, -255
67541, -939, 340, -87, 0, 210, -70, -172, -100, -249
67542, -939, 340, -89, 0, 70, -70, -172, -123, -250
67543, -940, 340, -90, -70, 70, -70, -178, -111, -253
67544, -939, 340, -89, 0, 140, -70, -174, -111, -255
67545, -938, 340, -89, 0, 70, -140, -180, -117, -256
67546, -938, 340, -89, 0, 210, -70, -166, -115, -264
67547, -939, 339, -89, 0, 210, -70, -175, -115, -256
67548, -938, 340, -88, 70, 210, -70, -171, -106, -253
67549, -939, 340, -89, 70, 210, -70, -172, -105, -246
67550, -939, 340, -89, -70, 70, -70, -168, -112, -256
67551, -939, 340, -89, 0, 210, -70, -172, -111, -249
67552, -939, 340, -89, 0, 140, 0, -171, -105, -256
67553, -939, 340, -89, 0, 140, -70, -177, -103, -249
67554, -939, 340, -89, 0, 140, -70, -172, -105, -246
67555, -939, 340, -88, 0, 210, -70, -181, -120, -250
67556, -938, 340, -88, 0, 140, -70, -171, -112, -258
67557, -939, 340, -88, 0, 210, -70, -174, -109, -265
67558, -940, 340, -89, 70, 210, -70, -181, -108, -250
67559, -940, 340, -89, 0, 140, -70, -169, -108, -252
67560, -939, 340, -89, -70, 140, -70, -172, -105, -259
67561, -939, 339, -88, 0, 210, -70, -180, -102, -255
67562, -939, 339, -88, 70, 140, -70, -184, -108, -250
67563, -939, 341, -89, 0, 210, -70, -171, -106, -247
67564, -939, 340, -89, 70, 210, -70, -169, -102, -253
67565, -939, 341, -88, -70, 140, -70, -186, -112, -249
67566, -940, 339, -89, -70, 210, -70, -175, -102, -258
67567, -939, 339, -87, 0, 210, -70, -181, -115, -249
67568, -941, 340, -89, 0, 140, -70, -177, -112, -258
67569, -939, 340, -88, 70, -70, -70, -183, -103, -261
67570, -939, 340, -89, 70, 70, -70, -165, -111, -247
67571, -940, 340, -89, 0, 210, -70, -178, -114, -258
67572, -939, 340, -89, 0, 70, -70, -169, -102, -249
67573, -938, 339, -89, 0, 280, -70, -175, -115, -258
67574, -938, 340, -87, 0, 210, -70, -181, -105, -253
67575, -941, 338, -90, 0, 350, -70, -174, -109, -262
67576, -938, 340, -88, 0, 0, -70, -172, -106, -252
67577, -939, 340, -88, 0, 210, -70, -174, -108, -252
67578, -940, 340, -89, 0, 140, -70, -174, -108, -250
67579, -940, 340, -89, 0, 140, -70, -183, -105, -249
67580, -939, 340, -88, 0, 0, -70, -174, -103, -255
67581, -939, 339, -89, 70, 140, -70, -169, -112, -261
67582, -939, 340, -88, 0, 70, -70, -159, -109, -253
67583, -939, 341, -89, 0, 210, 0, -178, -102, -255
67584, -938, 340, -87, -70, 280, -70, -160, -106, -249
67585, -939, 340, -90, 0, 280, 0, -171, -108, -258
67586, -938, 339, -88, 0, 210, -70, -180, -114, -252
67587, -939, 339, -89, -70, 210, -70, -171, -106, -249
67588, -939, 339, -88, 70, 140, -70, -171, -117, -252
67589, -939, 340, -88, 0, 140, -70, -181, -103, -255
67590, -939, 340, -88, 0, 210, -70, -172, -115, -249
67591, -939, 340, -88, -70, 70, -70, -178, -103, -252
67592, -938, 340, -88, 0, 210, -70, -178, -114, -252
67593, -939, 339, -87, 0, 70, 0, -175, -105, -249
67594, -940, 340, -88, 0, 280, -70, -175, -109, -252
67595, -939, 340, -88, 0, 70, -70, -177, -111, -253
67596, -939, 340, -88, 0, 280, -70, -169, -108, -250
67597, -939, 340, -89, -70, 140, -70, -174, -114, -261
67598, -939, 340, -88, 70, 140, -70, -174, -111, -250
67599, -939, 339, -89, 0, 210, 0, -171, -114, -258
67600, -939, 340, -89, 0, 140, 0, -177, -105, -249
67601, -938, 340, -88, -70, 210, -70, -177, -102, -253
67602, -939, 340, -88, 0, 140, -70, -178, -112, -262
67603, -939, 340, -89, 0, 210, -70, -166, -102, -247
67604, -939, 340, -87, 0, 140, -70, -175, -111, -247
67605, -939, 340, -88, 0, 140, -70, -177, -108, -249
67606, -938, 339, -88, 70, 140, -70, -172, -118, -256
67607, -938, 339, -88, 0, 140, -70, -168, -106, -247
67608, -939, 340, -89, 0, 210, -70, -178, -112, -262
67609, -939, 340, -88, 0, 210, -70, -183, -108, -256
67610, -939, 340, -89, 0, 210, -70, -171, -105, -250
67611, -939, 340, -89, 0, 140, -70, -175, -112, -255
67612, -938, 340, -89, 0, 280, -70, -171, -114, -255
67613, -940, 340, -90, 0, 210, -70, -171, -111, -258
67614, -939, 340, -88, 0, 140, -70, -177, -112, -258
67615, -939, 340, -88, 0, 280, -70, -178, -111, -252
67616, -939, 340, -89, -70, 140, -70, -168, -111, -255
67617, -940, 339, -89, 70, 140, -70, -180, -105, -264
67618, -940, 340, -88, 0, 70, -70, -181, -109, -258
67619, -939, 339, -89, 70, 210, -70, -177, -109, -250
67620, -938, 340, -88, 0, 70, -70, -181, -108, -256
67621, -938, 340, -89, 70, 210, -70, -175, -103, -253
67622, -940, 340, -88, 0, 140, 0, -177, -108, -259
67623, -939, 340, -87, 0, 140, -140, -169, -111, -246
67624, -939, 340, -88, -70, 280, 0, -171, -108, -261
67625, -939, 340, -89, 0, 140, -70, -171, -106, -249
67626, -940, 340, -89, 70, 210, -70, -175, -112, -253
67627, -939, 340, -88, 70, 210, -70, -183, -108, -256
67628, -939, 340, -88, 0, 70, -70, -174, -106, -265
67629, -939, 340, -88, 0, 70, -70, -172, -115, -252
67630, -940, 341, -88, 0, 140, 0, -172, -114, -250
67631, -940, 340, -90, 0, 140, -70, -180, -109, -252
67632, -939, 340, -89, 0, 140, -70, -174, -114, -271
67633, -939, 340, -89, 0, 210, 0, -180, -96, -255
67634, -938, 339, -88, 0, 140, -70, -175, -108, -261
67635, -939, 340, -89, 0, 140, -70, -174, -112, -252
67636, -938, 340, -88, 0, 280, -70, -172, -114, -255
67637, -939, 340, -90, 0, 210, -70, -169, -111, -250
67638, -938, 340, -88, -70, 140, -70, -174, -102, -252
67639, -940, 339, -88, 0, 140, -70, -171, -111, -258
67640, -939, 340, -88, 70, 210, -70, -177, -111, -262
67641, -939, 340, -88, 0, 210, -70, -175, -106, -255
67642, -940, 339, -90, 0, 210, -70, -175, -120, -265
67643, -939, 340, -89, -70, 140, -70, -178, -111, -259
67644, -939, 339, -88, 0, 70, -70, -169, -112, -250
67645, -939, 340, -88, 0, 210, -70, -171, -112, -249
67646, -939, 340, -87, 0, 70, -70, -171, -108, -253
67647, -939, 340, -89, 70, 210, 0, -175, -105, -252
67648, -940, 340, -89, 70, 140, -70, -175, -111, -253
67649, -938, 340, -87, 0, 140, -70, -180, -112, -256
67650, -939, 340, -87, 0, 140, -140, -186, -118, -261
67651, -938, 340, -89, -70, 140, -70, -180, -105, -268
67652, -940, 340, -89, 70, 140, -70, -181, -105, -249
67653, -939, 340, -89, 0, 140, -70, -180, -103, -261
67654, -939, 340, -88, 0, 140, -70, -175, -106, -262
67655, -940, 340, -89, 0, 280, -70, -180, -109, -256
67656, -939, 340, -88, 0, 70, -70, -169, -96, -255
67657, -938, 339, -88, 70, 210, -70, -172, -115, -253
67658, -939, 340, -88, 70, 140, -70, -172, -108, -261
67659, -939, 340, -89, 0, 210, -70, -169, -111, -252
67660, -939, 340, -88, 0, 70, -70, -174, -102, -255
67661, -939, 340, -88, 0, 210, 0, -177, -111, -265
67662, -939, 339, -88, 0, 70, 0, -171, -106, -258
