Time [mS], AccX [mg],AccY [mg],AccZ [mg],GyroX [mdps],GyroY [mdps],GyroZ [mdps],MagX [mgauss],MagY [mgauss],MagZ [mgauss]
61356, -139, 975, 115, -1960, -3640, 19670, -645, 381, -9
61357, -176, 994, 113, -1750, -3150, 17920, -646, 393, 4
61358, -206, 997, 109, -420, -3920, 7980, -652, 388, -3
61359, -179, 980, 112, 910, -4760, 840, -658, 385, -9
61360, -178, 987, 113, 2450, -4270, -840, -657, 391, -6
61361, -174, 997, 124, 2100, -3430, -1680, -649, 390, 0
61362, -156, 991, 121, -1400, -2590, 350, -645, 387, -6
61363, -148, 987, 124, -2100, -2170, 1050, -660, 385, -1
61364, -149, 977, 127, -2310, -1190, 1540, -648, 387, -3
61365, -157, 971, 126, -2450, 560, 1890, -658, 396, 1
61366, -152, 978, 120, -1680, 2730, 1960, -649, 390, -12
61367, -149, 978, 124, -980, 2590, 1610, -645, 393, -7
61368, -147, 980, 129, -840, 2310, 1260, -658, 382, -13
61369, -149, 986, 130, -1260, 2240, 1610, -657, 387, 3
61370, -149, 991, 130, -1750, 2380, 1960, -651, 390, -6
61371, -165, 978, 118, -2100, 2520, 1960, -660, 397, -1
61372, -159, 973, 121, -1400, 1330, 1820, -649, 387, -15
61373, -147, 974, 132, -1260, 2100, 1890, -654, 390, -9
61374, -142, 979, 134, -1470, 4760, 1610, -658, 387, -9
61375, -150, 979, 117, -1190, 6790, 490, -645, 390, -6
61376, -136, 982, 125, 2310, 5530, -1890, -654, 385, -4
61377, -147, 998, 136, 1680, 9730, -3570, -661, 391, -9
61378, -164, 982, 112, 490, 9730, -4760, -642, 387, 0
61379, -160, 970, 79, -4200, -7210, 3990, -654, 390, -4
61380, -188, 1104, 298, 2800, -26320, -14630, -651, 394, -15
61381, 11, 909, 202, 210, -3640, -35840, -652, 388, -18
61382, -126, 961, 136, -1260, -6440, -16870, -642, 390, -19
61383, -111, 932, 139, -490, -2030, -5670, -651, 388, -7
61384, -172, 973, 115, -560, -210, -1540, -649, 399, -12
61385, -161, 982, 125, -560, 280, -70, -646, 385, -4
61386, -126, 973, 143, -560, 140, 280, -652, 394, -4
61387, -173, 987, 116, -420, 1260, 280, -645, 390, 1
61388, -143, 972, 137, -350, 910, 350, -649, 397, -4
61389, -179, 979, 115, -280, 1540, 210, -658, 390, -12
61390, -169, 981, 115, -350, 1190, 280, -637, 385, -1
61391, -138, 975, 132, -350, 910, 420, -639, 394, -3
61392, -172, 985, 111, -350, 1470, 420, -651, 379, -3
61393, -148, 976, 125, -350, 1470, 490, -646, 391, -1
61394, -152, 975, 122, -210, 1960, 560, -655, 387, -7
61395, -176, 981, 107, -210, 2240, 560, -649, 384, 0
61396, -153, 975, 120, -280, 1960, 770, -645, 393, -9
61397, -178, 983, 106, -350, 2240, 770, -655, 403, -10
61398, -158, 978, 116, -350, 1960, 980, -649, 384, -6
61399, -162, 978, 113, -490, 2030, 1050, -651, 390, -3
61400, -179, 984, 103, -490, 2170, 1120, -646, 397, -16
61401, -158, 977, 113, -560, 1890, 1260, -648, 394, 3
61402, -177, 983, 103, -560, 2100, 1330, -655, 391, 0
61403, -161, 978, 111, -700, 1750, 1470, -654, 397, -3
61404, -166, 980, 111, -770, 1400, 1610, -645, 394, -3
61405, -181, 984, 104, -770, 1260, 1610, -645, 394, -6
61406, -164, 980, 113, -910, 770, 1680, -649, 381, -6
61407, -176, 982, 108, -980, 560, 1750, -646, 388, -7
61408, -171, 980, 111, -1050, 0, 1820, -649, 393, -1
61409, -158, 978, 119, -1120, -210, 1890, -648, 393, -22
61410, -168, 981, 115, -1050, -140, 1890, -640, 387, -3
61411, -156, 979, 122, -1120, -280, 1890, -649, 394, -4
61412, -161, 980, 120, -1050, -350, 1960, -642, 387, -12
61413, -160, 980, 123, -1120, -350, 1960, -642, 388, -7
61414, -150, 977, 130, -1050, -490, 1890, -652, 396, -3
61415, -157, 979, 126, -1050, -490, 1820, -654, 393, -10
61416, -148, 977, 133, -1050, -560, 1750, -648, 397, -9
61417, -154, 979, 131, -980, -700, 1610, -658, 393, 0
61418, -153, 980, 134, -980, -840, 1540, -646, 399, -13
61419, -146, 976, 139, -980, -1260, 1330, -654, 388, -6
61420, -153, 978, 137, -980, -1820, 1190, -655, 400, -4
61421, -142, 972, 144, -910, -2310, 1050, -646, 390, -12
61422, -130, 972, 144, -700, -1960, 700, -652, 393, -9
61423, -127, 973, 143, -630, -1470, 560, -646, 390, 1
61424, -116, 970, 147, -350, -560, 490, -652, 390, -9
61425, -123, 974, 143, -210, 700, 420, -642, 396, -6
61426, -130, 976, 143, 0, 1610, 350, -645, 399, 9
61427, -146, 973, 139, 210, 2170, 140, -642, 393, -10
61428, -153, 975, 134, 140, 2170, 70, -654, 391, -10
61429, -149, 975, 135, 210, 2170, 70, -654, 390, -1
61430, -154, 978, 131, 350, 2380, 0, -652, 388, -7
61431, -153, 978, 131, 350, 2450, 70, -651, 394, -10
61432, -160, 981, 127, 280, 2240, 70, -664, 390, -7
61433, -164, 980, 125, 210, 1750, 0, -648, 400, 3
61434, -161, 979, 126, 140, 1260, 0, -654, 393, -1
61435, -155, 980, 125, 70, 980, -70, -649, 391, -1
61436, -147, 977, 124, 140, 770, -140, -655, 387, -4
61437, -144, 976, 125, 140, 1050, -140, -654, 393, -7
61438, -148, 978, 124, 280, 1470, -140, -651, 393, -3
61439, -153, 980, 123, 350, 1330, -210, -651, 393, -7
61440, -155, 979, 123, 350, 1050, -280, -645, 382, -1
61441, -152, 980, 124, 280, 210, -490, -640, 384, -7
61442, -149, 980, 124, 350, -70, -490, -649, 391, -9
61443, -146, 978, 124, 280, -140, -700, -649, 388, -6
61444, -145, 978, 125, 280, -70, -770, -655, 394, 1
61445, -142, 977, 128, 420, 70, -980, -646, 390, -6
61446, -141, 977, 129, 490, 280, -1050, -663, 387, -4
61447, -146, 979, 126, 560, 490, -1120, -646, 391, -13
61448, -144, 977, 129, 700, 560, -1190, -651, 391, -9
61449, -147, 977, 126, 700, 770, -1330, -651, 396, -12
61450, -152, 976, 127, 770, 980, -1400, -658, 394, 1
61451, -151, 977, 127, 840, 980, -1400, -648, 388, -7
61452, -157, 979, 126, 840, 1120, -1470, -646, 390, -7
61453, -157, 978, 127, 910, 910, -1470, -652, 391, -6
61454, -160, 979, 125, 840, 630, -1540, -657, 393, -3
61455, -157, 980, 126, 840, 350, -1540, -649, 391, -1
61456, -155, 977, 125, 910, 350, -1610, -645, 394, -4
61457, -157, 978, 127, 840, 350, -1610, -658, 396, -4
61458, -157, 976, 126, 840, 350, -1610, -657, 394, -1
61459, -160, 978, 124, 840, 280, -1540, -651, 388, -7
61460, -164, 977, 122, 840, 280, -1540, -652, 384, -9
61461, -164, 978, 125, 840, 210, -1540, -651, 390, -6
61462, -167, 980, 123, 840, 70, -1470, -649, 403, -6
61463, -168, 980, 124, 770, -140, -1470, -652, 391, 0
61464, -170, 979, 125, 630, -630, -1330, -651, 396, -3
61465, -171, 982, 123, 560, -770, -1260, -651, 391, -7
61466, -167, 981, 124, 490, -910, -1190, -645, 388, -3
61467, -167, 981, 124, 420, -980, -1050, -649, 394, -3
61468, -167, 979, 126, 420, -840, -980, -646, 385, 0
61469, -168, 979, 124, 280, -1260, -840, -649, 403, -1
61470, -169, 979, 122, 140, -1400, -770, -640, 384, -1
61471, -164, 978, 124, 140, -1470, -700, -654, 384, 1
61472, -168, 979, 120, 70, -1330, -700, -643, 397, -7
61473, -158, 979, 121, 70, -770, -490, -654, 394, -1
61474, -159, 979, 121, 70, -420, -420, -648, 397, -12
61475, -165, 981, 117, 70, 0, -210, -649, 402, 3
61476, -167, 980, 120, 70, 140, -140, -636, 394, -6
61477, -175, 982, 116, 0, 210, 0, -657, 388, 1
61478, -183, 983, 115, -280, -350, 210, -651, 391, 4
61479, -183, 982, 114, -350, -770, 350, -646, 397, -7
61480, -182, 983, 112, -560, -1330, 490, -648, 394, -3
61481, -175, 982, 116, -700, -1470, 630, -649, 391, 3
61482, -177, 983, 114, -700, -1750, 770, -643, 391, 6
61483, -183, 983, 115, -980, -2520, 910, -651, 393, 1
61484, -182, 981, 116, -1120, -3290, 980, -640, 388, -6
61485, -172, 978, 116, -1260, -3990, 1050, -654, 396, -3
61486, -160, 978, 118, -1190, -3990, 1120, -652, 387, -1
61487, -149, 979, 121, -1190, -2660, 1330, -658, 390, 1
61488, -151, 978, 121, -1120, -2030, 1400, -651, 387, -9
61489, -153, 979, 125, -1050, -1470, 1470, -648, 391, -4
61490, -157, 979, 123, -980, -1190, 1540, -652, 388, -4
61491, -156, 977, 125, -910, -1120, 1470, -645, 396, -3
61492, -153, 976, 128, -980, -1260, 1400, -645, 381, -3
61493, -151, 978, 130, -980, -1470, 1330, -648, 391, -3
61494, -145, 978, 133, -910, -1540, 1190, -648, 394, -9
61495, -145, 978, 132, -840, -1610, 1120, -648, 393, -6
61496, -142, 977, 134, -840, -1540, 980, -646, 390, 0
61497, -142, 976, 134, -630, -1330, 700, -648, 391, 0
61498, -141, 974, 136, -560, -1330, 560, -648, 382, -1
61499, -137, 974, 139, -420, -1190, 420, -646, 390, -1
61500, -137, 975, 136, -350, -1120, 280, -649, 393, -6
61501, -138, 975, 137, -140, -700, -70, -652, 390, -4
61502, -137, 974, 138, 0, -490, -210, -645, 391, -1
61503, -138, 975, 136, 70, -280, -280, -660, 393, 3
61504, -140, 975, 136, 210, -140, -490, -649, 399, -13
61505, -141, 975, 137, 280, -70, -560, -649, 391, -1
61506, -146, 976, 135, 350, 0, -840, -654, 390, 3
61507, -149, 976, 133, 490, 70, -910, -648, 390, -10
61508, -150, 976, 133, 490, 70, -980, -648, 388, -7
61509, -153, 978, 132, 490, 70, -1050, -645, 385, -10
61510, -154, 978, 132, 560, 140, -1050, -657, 382, -12
61511, -157, 979, 128, 490, 140, -1050, -646, 388, -12
61512, -124, 995, 133, 560, 140, -1120, -651, 397, 0
61513, -190, 991, 106, 420, 2450, -560, -652, 390, 0
61514, -157, 959, 140, 280, 2170, -560, -645, 388, -4
61515, -149, 967, 138, 140, -140, -630, -642, 397, 3
61516, -197, 980, 108, 70, -700, -560, -655, 381, -7
61517, -128, 969, 140, 140, -490, -490, -658, 390, 1
61518, -174, 994, 108, 210, -140, -280, -649, 391, -9
61519, -125, 981, 134, 210, 630, -210, -651, 393, -9
61520, -147, 969, 129, 70, 840, -70, -652, 396, -7
61521, -192, 986, 103, -140, 560, 0, -648, 391, -10
61522, -145, 979, 127, -140, 560, 0, -655, 388, -10
61523, -187, 989, 104, -280, 490, 210, -648, 387, 0
61524, -147, 974, 129, -210, 280, 140, -646, 393, -3
61525, -139, 976, 122, -140, 70, 210, -655, 390, 9
61526, -167, 982, 107, -280, -70, 280, -652, 385, 4
61527, -143, 971, 125, -210, 350, 280, -655, 390, -1
61528, -170, 986, 111, -210, 140, 280, -648, 402, -7
61529, -170, 986, 114, -210, 0, 280, -660, 388, -3
61530, -151, 977, 129, -140, 140, 210, -655, 393, -7
61531, -172, 985, 116, -140, -140, 280, -651, 387, -4
61532, -154, 978, 128, -140, 0, 350, -649, 391, -12
61533, -169, 982, 121, -280, -210, 420, -648, 396, -10
61534, -164, 979, 123, -350, 70, 490, -649, 391, -3
61535, -147, 976, 133, -350, 350, 490, -652, 384, -1
61536, -153, 981, 128, -350, 490, 490, -655, 397, -10
61537, -140, 976, 136, -280, 1190, 490, -652, 390, 3
61538, -151, 980, 129, -210, 1960, 560, -645, 390, -3
61539, -164, 978, 128, -70, 1960, 630, -646, 388, -4
61540, -159, 975, 134, 0, 1890, 560, -654, 394, -12
61541, -167, 979, 129, -140, 1400, 630, -652, 387, -10
61542, -158, 978, 134, -70, 1260, 490, -649, 394, -3
61543, -152, 978, 135, -140, 1260, 630, -646, 400, -12
61544, -154, 980, 131, -280, 1330, 630, -660, 390, -6
61545, -148, 977, 134, -210, 1680, 560, -655, 390, -3
61546, -150, 976, 130, -140, 1680, 560, -646, 385, -3
61547, -144, 973, 134, -140, 2030, 490, -651, 388, -7
61548, -141, 975, 133, 0, 2380, 350, -649, 394, -12
61549, -143, 976, 130, 70, 2310, 280, -643, 393, -4
61550, -138, 976, 131, 210, 2450, 70, -649, 394, -7
61551, -142, 977, 128, 350, 2450, -70, -643, 391, -4
61552, -138, 976, 129, 490, 2450, -420, -651, 388, -4
61553, -137, 975, 131, 630, 2660, -630, -649, 391, -3
61554, -139, 975, 127, 700, 2590, -770, -655, 394, -7
61555, -138, 975, 127, 770, 2730, -980, -654, 385, -6
61556, -139, 975, 127, 910, 2660, -1120, -646, 397, -1
61557, -141, 975, 124, 1120, 3080, -1470, -649, 388, 0
61558, -142, 976, 122, 1190, 3360, -1610, -646, 393, -10
61559, -143, 976, 119, 1330, 3570, -1610, -655, 390, -3
61560, -142, 976, 119, 1400, 3990, -1680, -654, 393, 1
61561, -144, 977, 119, 1470, 4550, -1750, -652, 400, -4
61562, -145, 983, 114, 1750, 5600, -1820, -646, 396, 4
61563, -144, 983, 115, 1820, 6230, -1820, -648, 396, -4
61564, -150, 981, 116, 1960, 6720, -1750, -654, 390, -7
61565, -158, 978, 113, 2100, 6930, -1890, -652, 391, -10
61566, -164, 977, 113, 2170, 6370, -1960, -646, 381, -10
61567, -167, 982, 111, 2030, 5950, -1960, -654, 390, -6
61568, -168, 979, 112, 1960, 5670, -1890, -652, 387, -3
61569, -172, 981, 110, 1960, 5320, -1820, -652, 393, -13
61570, -172, 979, 110, 1820, 4900, -1820, -645, 385, 3
61571, -172, 974, 111, 1820, 4690, -1680, -649, 393, -1
61572, -180, 974, 110, 1820, 4830, -1470, -640, 399, -9
61573, -187, 979, 111, 1750, 4550, -1330, -648, 397, -4
61574, -191, 988, 111, 1680, 3990, -1120, -652, 390, -4
61575, -199, 988, 113, 1540, 3290, -980, -660, 396, -9
61576, -212, 970, 121, 1260, 1050, -700, -651, 391, -10
61577, -213, 967, 126, 980, -420, -560, -655, 390, -1
61578, -208, 966, 128, 840, -1890, -420, -649, 388, -4
61579, -196, 971, 133, 700, -2870, -210, -655, 394, 4
61580, -180, 979, 138, 350, -2730, 0, -646, 396, -6
61581, -143, 990, 149, 280, -1750, 140, -646, 391, -3
61582, -133, 989, 156, 70, -350, 210, -649, 397, 3
61583, -138, 983, 158, 70, 980, 280, -646, 393, -6
61584, -143, 973, 158, 140, 1610, 350, -649, 390, -4
61585, -147, 965, 153, 420, 2520, 70, -645, 390, -6
61586, -146, 970, 151, 560, 2730, -70, -645, 394, -9
61587, -145, 974, 151, 630, 2660, -350, -651, 391, -4
61588, -148, 975, 150, 700, 2310, -560, -649, 390, -7
61589, -146, 976, 147, 770, 1890, -770, -643, 391, 0
61590, -142, 976, 139, 910, 1960, -1260, -643, 391, -6
61591, -145, 975, 136, 910, 2380, -1330, -654, 394, -3
61592, -144, 973, 134, 1050, 2940, -1470, -640, 387, -6
61593, -144, 975, 129, 1190, 3710, -1470, -643, 396, -3
61594, -145, 981, 121, 1330, 6230, -1260, -654, 393, 0
61595, -162, 982, 110, 1610, 7280, -1120, -655, 382, -12
61596, -162, 980, 110, 1400, 7700, -1120, -654, 396, -4
61597, -163, 976, 105, 1470, 8680, -980, -655, 393, -6
61598, -167, 977, 99, 1540, 9590, -840, -640, 394, -10
61599, -176, 982, 90, 1540, 10150, -490, -651, 394, -1
61600, -270, 1047, 96, 2660, 5740, -13230, -654, 390, 1
61601, -451, 1088, 11, 3640, 8190, -24990, -645, 390, -1
61602, 20, 868, 106, 0, 7070, -50120, -639, 400, -6
61603, -117, 967, 116, 2030, 5390, -14350, -637, 385, 3
61604, -240, 988, 50, 1610, 7630, -19740, -642, 397, -13
61605, -219, 990, 72, 3010, 6370, -41370, -640, 393, -9
61606, -88, 930, 83, 1120, 6440, -23310, -646, 397, -3
61607, -152, 961, 69, -630, 7140, -3360, -636, 399, 3
61608, -211, 973, 56, -770, 8820, 210, -642, 396, -1
61609, -199, 983, 85, 280, 10920, 1190, -636, 405, -7
61610, -197, 972, 74, 70, 11900, 1890, -636, 399, 0
61611, -187, 967, 74, 0, 13370, 2520, -645, 399, -9
61612, -254, 972, 31, -5180, 31500, 12320, -643, 391, -13
61613, -181, 974, 98, 630, 12530, 2870, -642, 399, -10
61614, -202, 978, 91, 840, 13090, 2380, -643, 391, -6
61615, -198, 979, 93, 490, 12950, 2310, -634, 391, -12
61616, -211, 980, 86, 350, 12460, 2310, -645, 390, -6
61617, -212, 978, 93, -210, 11900, 2520, -640, 400, -10
61618, -225, 980, 87, -420, 8750, 2660, -642, 393, -15
61619, -234, 987, 89, -560, 6580, 2520, -646, 400, -13
61620, -228, 983, 90, -560, 4480, 2310, -643, 385, -15
61621, -235, 985, 85, -210, 1120, 1960, -637, 397, -4
61622, -211, 979, 99, -560, -1330, 1750, -637, 388, -24
61623, -200, 975, 103, -1190, -490, 2100, -639, 394, -12
61624, -197, 977, 102, -1330, -1610, 2030, -648, 394, -9
61625, -184, 976, 108, -1330, -2100, 1890, -639, 394, -4
61626, -184, 975, 109, -1470, -1960, 2030, -649, 399, -13
61627, -176, 974, 108, -1050, 420, 2100, -642, 397, -10
61628, -161, 971, 115, -910, 2030, 2240, -645, 388, -13
61629, -158, 969, 113, -770, 3010, 2240, -643, 394, -10
61630, -153, 969, 113, -560, 4550, 2310, -639, 384, -9
61631, -155, 972, 111, -210, 5390, 2100, -642, 397, -25
61632, -152, 974, 112, 140, 8400, 2030, -645, 390, -16
61633, -148, 971, 113, 210, 10360, 2100, -642, 391, -9
61634, -155, 970, 109, 490, 11620, 2030, -642, 396, -9
61635, -155, 970, 111, 770, 12250, 1750, -646, 394, -9
61636, -168, 973, 106, 840, 12880, 1330, -645, 397, -9
61637, -164, 971, 112, 910, 13230, 1050, -651, 397, -10
61638, -178, 973, 102, 1050, 13930, 1050, -642, 397, -9
61639, -167, 974, 111, 1120, 14910, 1050, -637, 394, -10
61640, -189, 975, 100, 1610, 14070, 560, -640, 393, -18
61641, -201, 973, 99, 1470, 12950, 280, -631, 388, -4
61642, -206, 977, 96, 1330, 11270, 560, -642, 391, -19
61643, -203, 978, 95, 1120, 9450, 490, -633, 397, -7
61644, -197, 979, 100, 1120, 7350, 280, -658, 394, -15
61645, -195, 976, 99, 630, 7700, 420, -640, 387, -15
61646, -194, 973, 97, 490, 6370, 280, -649, 402, -18
61647, -195, 972, 98, 490, 5320, 210, -649, 391, -9
61648, -195, 971, 98, 630, 4270, 70, -639, 397, -13
61649, -199, 973, 99, 560, 3220, -140, -643, 394, -10
61650, -203, 979, 101, 560, 420, -490, -648, 396, -13
61651, -200, 979, 103, 420, -700, -560, -646, 390, -10
61652, -195, 978, 105, 140, -1540, -560, -642, 393, -13
61653, -192, 978, 106, -350, -2030, -490, -643, 400, -22
61654, -192, 975, 108, -350, -2240, -490, -639, 402, -15
61655, -195, 974, 108, 0, -1890, -560, -640, 399, -12
61656, -195, 975, 108, 350, -1680, -560, -643, 390, -13
61657, -195, 979, 109, 560, -1470, -490, -642, 390, -7
61658, -195, 980, 110, 630, -1330, -420, -648, 397, -18
61659, -195, 979, 111, 420, -840, -70, -645, 396, -15
61660, -191, 979, 113, 0, -140, 70, -648, 387, -16
61661, -193, 979, 109, -210, 350, 280, -637, 388, -16
61662, -193, 978, 111, -280, 630, 350, -642, 400, -13
61663, -193, 976, 111, -350, 1120, 490, -649, 400, -9
61664, -189, 976, 111, -420, 1890, 770, -640, 394, -6
61665, -188, 977, 110, -420, 2100, 840, -633, 394, -18
61666, -186, 976, 110, -350, 2170, 980, -642, 391, -13
61667, -185, 975, 109, -350, 2520, 910, -648, 397, -18
61668, -184, 975, 110, -280, 2660, 1050, -652, 391, -7
61669, -182, 976, 107, -280, 3080, 980, -643, 387, -12
61670, -184, 977, 106, -280, 3290, 980, -645, 405, -12
61671, -183, 976, 106, -350, 3570, 980, -646, 406, -7
61672, -183, 977, 103, -280, 3640, 980, -651, 391, -18
61673, -182, 976, 102, -280, 3430, 840, -649, 397, -9
61674, -182, 974, 98, -280, 3220, 770, -646, 396, -13
61675, -184, 977, 97, -140, 2940, 700, -657, 399, -9
61676, -183, 975, 96, -70, 2450, 560, -646, 385, -15
61677, -183, 975, 96, 0, 2240, 420, -645, 396, -7
61678, -181, 976, 95, -70, 2170, 280, -642, 396, -22
61679, -183, 976, 93, -70, 2170, 210, -640, 391, -10
61680, -183, 977, 94, -140, 1820, 140, -652, 391, -18
61681, -183, 976, 93, -70, 1610, 140, -652, 393, -4
61682, -183, 974, 92, -70, 1400, 0, -648, 397, -15
61683, -181, 977, 93, 70, 1470, -70, -646, 402, -3
61684, -184, 977, 92, 70, 1610, -140, -652, 399, -7
61685, -174, 977, 101, -140, 2030, -70, -636, 397, -13
61686, -185, 977, 89, 70, 2030, -70, -637, 391, -15
61687, -181, 976, 94, 420, 1750, -210, -648, 393, -12
61688, -186, 977, 92, 420, 1680, -280, -651, 397, -10
61689, -187, 976, 94, 350, 1820, -280, -649, 396, -10
61690, -190, 978, 93, 280, 1960, -210, -649, 391, -13
61691, -190, 976, 94, 280, 1960, -140, -639, 381, -16
61692, -190, 977, 93, 280, 1750, -140, -654, 396, -16
61693, -191, 977, 93, 280, 1470, -140, -642, 397, -13
61694, -189, 976, 93, 280, 1470, -140, -637, 385, -13
61695, -189, 975, 95, 350, 1330, -140, -645, 390, -10
61696, -187, 975, 95, 350, 1260, -70, -646, 390, -15
61697, -184, 976, 96, 280, 1680, 0, -645, 399, -7
61698, -185, 976, 96, 280, 1890, 0, -646, 393, -12
61699, -182, 977, 98, 140, 2380, 70, -646, 394, -7
61700, -183, 978, 97, 0, 2730, 0, -655, 387, -19
61701, -182, 979, 97, -70, 2870, 70, -646, 388, -13
61702, -180, 973, 98, -70, 2800, 70, -643, 390, -16
61703, -181, 973, 97, -70, 2800, 70, -646, 394, -4
61704, -179, 974, 96, 70, 2660, 70, -654, 393, -19
61705, -181, 974, 97, 350, 2730, -70, -649, 400, -13
61706, -186, 974, 98, 700, 2310, -350, -642, 391, -16
61707, -187, 977, 96, 770, 1960, -420, -642, 396, -9
61708, -187, 978, 96, 770, 1820, -420, -654, 390, -12
61709, -189, 978, 95, 700, 1680, -490, -640, 390, -18
61710, -192, 978, 95, 560, 1330, -560, -645, 393, -16
61711, -192, 978, 92, 490, 490, -700, -652, 391, -9
61712, -191, 978, 94, 490, 70, -700, -645, 390, -18
61713, -190, 977, 94, 560, 0, -700, -654, 400, -12
61714, -187, 974, 94, 560, 70, -630, -646, 399, -16
61715, -184, 976, 94, 420, 980, -560, -643, 396, -9
61716, -185, 976, 95, 420, 1470, -490, -645, 390, -15
61717, -185, 977, 94, 560, 1820, -420, -648, 394, -19
61718, -186, 977, 93, 420, 2100, -350, -643, 402, -18
61719, -186, 978, 93, 420, 2520, -350, -646, 393, -15
61720, -186, 977, 93, 420, 2590, -280, -646, 393, -19
61721, -188, 976, 91, 490, 2660, -350, -648, 396, -19
61722, -189, 974, 92, 490, 2380, -350, -643, 381, -18
61723, -190, 975, 91, 630, 2310, -350, -640, 388, -10
61724, -192, 977, 92, 630, 2100, -350, -643, 396, -10
61725, -198, 978, 90, 630, 1120, -420, -639, 391, -21
61726, -197, 977, 91, 630, 630, -420, -649, 385, -16
61727, -196, 977, 93, 700, 350, -420, -648, 399, -10
61728, -193, 976, 94, 700, 350, -420, -645, 384, -13
61729, -184, 978, 97, 490, 1470, -210, -642, 390, -4
61730, -178, 977, 99, 280, 2240, -140, -642, 399, -13
61731, -172, 976, 104, 0, 3710, 70, -643, 393, -13
61732, -164, 977, 111, -350, 6300, 350, -645, 394, -15
61733, -165, 976, 109, -910, 9240, 840, -652, 390, -16
61734, -148, 961, 104, -3430, 5670, 11130, -640, 403, -24
61735, -301, 997, -6, 70, 4130, 3360, -649, 394, -19
61736, -124, 979, 155, 3710, -11690, -2030, -649, 400, -18
61737, -186, 977, 88, 2730, -6370, -1820, -640, 388, -10
61738, -174, 981, 100, 2380, -2450, -1470, -646, 403, -16
61739, -164, 984, 97, 980, 2100, -1050, -645, 394, -9
61740, -172, 982, 90, 840, 4270, -840, -637, 388, -10
61741, -174, 979, 85, 910, 5180, -770, -642, 400, -6
61742, -174, 978, 81, 910, 6300, -700, -636, 399, -18
61743, -178, 978, 74, 1120, 8750, -350, -646, 390, -19
61744, -181, 979, 69, 1120, 10010, -140, -637, 393, -18
61745, -180, 981, 66, 1120, 11270, 70, -649, 388, -15
61746, -181, 982, 62, 1190, 12740, 420, -646, 391, -12
61747, -183, 982, 58, 1190, 14420, 700, -645, 399, -10
61748, -184, 979, 50, 1260, 18270, 1540, -643, 396, -18
61749, -178, 979, 47, 1330, 20650, 2100, -645, 393, -12
61750, -168, 980, 44, 1470, 23870, 2730, -658, 390, -16
61751, -176, 979, 41, 1610, 27580, 3430, -645, 390, -13
61752, -192, 983, 37, 1540, 30450, 3990, -643, 399, -22
61753, -189, 987, 30, 1330, 34020, 4970, -651, 385, -31
61754, -179, 984, 27, 1330, 37170, 5530, -648, 388, -31
61755, -178, 981, 27, 1400, 40530, 6090, -640, 390, -22
61756, -195, 981, 24, 1470, 43260, 6720, -648, 385, -19
61757, -258, 991, 17, 910, 42560, 7350, -643, 396, -24
61758, -259, 993, 12, 210, 39200, 7420, -654, 391, -27
61759, -242, 992, 12, -350, 36750, 7630, -642, 390, -25
61760, -236, 992, 12, -770, 35560, 7980, -658, 390, -31
61761, -242, 995, 11, -1190, 34580, 8330, -643, 388, -34
61762, -245, 1011, 14, -2520, 27790, 8120, -649, 388, -30
61763, -218, 1003, 20, -3150, 23940, 7700, -652, 396, -27
61764, -184, 979, 31, -3360, 21770, 7560, -649, 391, -34
61765, -169, 959, 34, -3220, 21700, 7700, -646, 390, -28
61766, -172, 954, 37, -3010, 22120, 7840, -651, 391, -37
61767, -189, 977, 37, -2450, 21280, 7700, -649, 387, -21
61768, -193, 981, 36, -2240, 20160, 7490, -655, 399, -31
61769, -180, 978, 39, -2100, 19740, 7280, -652, 388, -34
61770, -164, 977, 44, -1890, 20580, 7420, -658, 399, -39
61771, -142, 983, 52, -1680, 23170, 7560, -655, 385, -34
61772, -134, 988, 58, -1610, 24850, 7420, -654, 387, -37
61773, -123, 989, 61, -1610, 26110, 7210, -655, 387, -39
61774, -113, 982, 68, -1540, 27300, 7000, -649, 390, -27
61775, -107, 971, 71, -1260, 28700, 6790, -648, 385, -28
61776, -91, 957, 75, 70, 34300, 6720, -649, 393, -42
61777, -111, 957, 75, 980, 37660, 6650, -660, 387, -31
61778, -162, 967, 68, 1680, 38640, 6370, -649, 399, -46
61779, -205, 975, 62, 2100, 36400, 5740, -658, 394, -43
61780, -240, 981, 58, 2030, 25060, 4410, -654, 396, -52
61781, -264, 995, 55, 1050, 17780, 3710, -666, 402, -45
61782, -256, 999, 59, 420, 10570, 2940, -664, 387, -46
61783, -239, 999, 64, -140, 3290, 2170, -664, 391, -42
61784, -213, 1000, 69, -700, -2940, 1330, -655, 388, -46
61785, -107, 991, 81, -1330, -8820, 210, -664, 388, -42
61786, -85, 971, 86, -980, -7420, 210, -655, 390, -54
61787, -94, 953, 87, -420, -4690, 280, -663, 387, -45
61788, -117, 950, 87, 350, -2380, 210, -651, 396, -46
61789, -139, 958, 82, 1120, -1330, 0, -661, 400, -31
61790, -160, 967, 76, 2450, -2030, -840, -669, 384, -51
61791, -159, 971, 76, 2730, -3010, -1260, -657, 388, -45
61792, -157, 978, 75, 2870, -3990, -1470, -655, 385, -43
61793, -154, 982, 76, 2870, -4970, -1610, -660, 397, -39
61794, -154, 985, 76, 2800, -6440, -1820, -657, 387, -40
61795, -164, 984, 77, 2800, -6790, -2030, -663, 390, -37
61796, -166, 983, 80, 2870, -7140, -2170, -654, 384, -40
61797, -165, 980, 82, 3010, -7560, -2450, -661, 397, -34
61798, -159, 976, 87, 3080, -7980, -2590, -652, 393, -43
61799, -148, 973, 91, 3290, -9030, -3010, -666, 402, -33
61800, -146, 976, 91, 3360, -9590, -3080, -651, 381, -37
61801, -143, 981, 90, 3290, -10010, -3290, -654, 397, -33
61802, -149, 987, 88, 3430, -10220, -3500, -658, 397, -33
61803, -162, 989, 82, 3430, -10920, -3710, -663, 396, -36
61804, -31, 1007, 107, 3500, -9100, -3990, -652, 384, -39
61805, -141, 991, 38, 3360, -3150, -3150, -664, 394, -33
61806, -191, 958, 68, 3780, -2800, -3360, -655, 391, -40
61807, -220, 959, 63, 3430, -5600, -3290, -660, 391, -30
61808, -213, 981, 58, 3080, -7840, -3220, -651, 393, -31
61809, -212, 996, 63, 2870, -9100, -3360, -651, 388, -27
61810, -220, 997, 67, 2310, -12460, -3290, -651, 388, -27
61811, -248, 1018, 56, 1750, -16100, -3850, -654, 393, -28
61812, -193, 972, 69, 1330, -21000, -3430, -649, 387, -34
61813, -184, 959, 52, 630, -21840, -2590, -660, 394, -25
61814, -172, 1011, 18, 420, -18620, -2380, -658, 391, -33
61815, -105, 1009, 52, 210, -15470, -1750, -652, 394, -30
61816, -139, 1001, 28, 210, -9380, -1260, -643, 384, -31
61817, -115, 963, 72, 140, -5040, -560, -654, 400, -27
61818, -153, 975, 83, 490, -840, -280, -661, 391, -25
61819, -203, 976, 55, 840, -2590, -700, -660, 390, -24
61820, -166, 949, 91, 1120, -6160, -1120, -649, 400, -33
61821, -174, 973, 63, 1470, -7840, -1610, -654, 391, -25
61822, -122, 982, 94, 2170, -8400, -1820, -661, 394, -33
61823, -154, 972, 85, 2380, -8400, -1680, -655, 400, -21
61824, -191, 985, 48, 2380, -8190, -1820, -657, 382, -25
61825, -140, 1001, 72, 2100, -8120, -2170, -646, 385, -31
61826, -143, 1026, 45, 1820, -6860, -2520, -666, 397, -24
61827, -183, 972, 59, 1470, -5950, -2660, -652, 391, -30
61828, -178, 950, 88, 1330, -7140, -2590, -661, 394, -19
61829, -211, 970, 65, 1470, -9240, -2590, -655, 399, -25
61830, -206, 971, 77, 1750, -11690, -2590, -649, 387, -28
61831, -257, 975, 49, 1750, -14490, -2730, -657, 393, -10
61832, -270, 1003, 6, 770, -21350, -2660, -657, 390, -25
61833, -265, 1040, 14, -910, -23870, -1960, -655, 393, -18
61834, -305, 1064, 3, -2520, -26880, -1540, -655, 387, -21
61835, -292, 1023, 30, -3990, -32550, -1470, -645, 397, -16
61836, -329, 962, 52, -6230, -43330, -1750, -646, 394, -13
61837, -256, 964, 45, -6370, -47040, -1750, -655, 399, -18
61838, -221, 957, 68, -6510, -50260, -1330, -658, 390, -15
61839, -249, 967, 53, -6580, -52360, -840, -652, 397, -12
61840, -243, 990, 59, -7140, -55160, -280, -655, 393, -10
61841, -325, 1034, 35, -9030, -60690, 840, -658, 394, -22
61842, -414, 1021, 13, -10780, -67830, 1050, -646, 400, -15
61843, -448, 1002, 14, -12670, -77140, 1190, -648, 388, -6
61844, -492, 1009, 6, -14770, -88270, 1190, -657, 394, -4
61845, -420, 1005, 27, -16590, -100520, 1260, -660, 406, -7
61846, -379, 985, 62, -19110, -117670, 1610, -657, 393, -6
61847, -383, 1012, 62, -20440, -128100, 1400, -648, 391, -6
61848, -355, 1029, 64, -21910, -139930, 1120, -654, 396, 3
61849, -334, 1017, 63, -23100, -150220, 700, -654, 403, 9
61850, -310, 977, 72, -24570, -165760, -140, -655, 396, -4
61851, -274, 982, 76, -25130, -172130, -420, -648, 391, -3
61852, -171, 988, 82, -25200, -176470, -840, -646, 396, 7
61853, -5, 966, 101, -24640, -172060, -560, -649, 399, 18
61854, 94, 925, 142, -22820, -156590, 770, -652, 399, 13
61855, 115, 899, 200, -18760, -125860, 3570, -648, 387, 21
61856, 99, 891, 222, -16590, -114380, 4690, -646, 403, 10
61857, 129, 900, 236, -14700, -104160, 5040, -639, 400, 15
61858, 198, 934, 245, -12950, -91630, 5250, -648, 393, 15
61859, 225, 977, 249, -11410, -76930, 5320, -648, 394, 24
61860, 247, 970, 275, -8960, -49980, 4830, -654, 394, 27
61861, 175, 941, 283, -7770, -38850, 4550, -648, 393, 19
61862, 112, 913, 287, -6510, -32830, 3920, -649, 399, 30
61863, 95, 908, 275, -5320, -28770, 3150, -646, 396, 28
61864, 101, 954, 248, -3080, -15050, 2520, -648, 397, 31
61865, 88, 962, 237, -2030, -4760, 2590, -652, 393, 21
61866, 85, 953, 243, -910, 5530, 2520, -655, 385, 21
61867, 42, 945, 241, 140, 13300, 2590, -651, 391, 21
61868, 10, 942, 238, 840, 18410, 2660, -651, 394, 27
61869, -144, 962, 217, 1610, 20090, 2660, -649, 393, 28
61870, -230, 975, 205, 1400, 15750, 2240, -651, 387, 13
61871, -280, 992, 196, 770, 8260, 1610, -646, 388, 18
61872, -320, 1010, 186, -420, -1610, 980, -649, 393, 25
61873, -312, 1020, 186, -1820, -12530, 350, -643, 391, 21
61874, -302, 999, 186, -4690, -31430, -70, -636, 396, 24
61875, -310, 992, 186, -5950, -40460, -140, -648, 390, 28
61876, -297, 986, 190, -6930, -48650, -210, -651, 394, 21
61877, -269, 971, 196, -7630, -55230, -140, -648, 393, 27
61878, -194, 942, 223, -7840, -60550, 560, -649, 396, 28
61879, -197, 955, 225, -7910, -62860, 840, -651, 385, 28
61880, -189, 971, 229, -8260, -67200, 910, -649, 394, 31
61881, -159, 984, 227, -8680, -70980, 910, -642, 394, 31
61882, -139, 992, 226, -9240, -72030, 1050, -655, 390, 40
61883, -89, 992, 233, -9870, -70980, 1330, -646, 391, 34
61884, -72, 976, 243, -9870, -69020, 1750, -645, 387, 24
61885, -78, 959, 249, -9730, -67200, 2240, -648, 391, 34
61886, -120, 949, 249, -9590, -67130, 2590, -645, 391, 31
61887, -126, 938, 253, -9450, -68950, 2660, -655, 393, 45
61888, -70, 950, 257, -8610, -67200, 3010, -651, 396, 34
61889, -22, 956, 262, -8260, -63560, 3290, -648, 397, 28
61890, 14, 959, 266, -7770, -58100, 3920, -643, 397, 31
61891, 36, 952, 274, -7140, -51800, 4620, -646, 403, 36
61892, -1, 946, 283, -6020, -40530, 5810, -652, 394, 33
61893, -32, 951, 281, -5460, -37170, 6160, -633, 385, 43
61894, -45, 953, 282, -5040, -34650, 6370, -642, 379, 39
61895, -46, 955, 280, -4760, -32690, 6580, -637, 390, 40
61896, -28, 958, 279, -4620, -30380, 6650, -654, 387, 43
61897, -17, 960, 280, -4270, -26460, 6860, -643, 394, 45
61898, -37, 952, 282, -4130, -25620, 6790, -646, 387, 34
61899, -57, 947, 285, -4060, -26530, 6510, -645, 393, 43
61900, -68, 947, 289, -4130, -28490, 6230, -643, 391, 42
61901, -73, 951, 287, -4200, -32200, 5460, -640, 396, 46
61902, -29, 964, 287, -4270, -32690, 5110, -642, 384, 42
61903, -40, 967, 292, -4200, -31570, 5040, -645, 390, 45
61904, -13, 959, 300, -4340, -32900, 4690, -640, 396, 42
61905, -15, 961, 294, -4340, -32830, 4480, -648, 393, 46
61906, -30, 950, 291, -4480, -32060, 4060, -642, 390, 52
61907, -3, 936, 293, -4270, -31640, 3780, -642, 390, 49
61908, 1, 921, 300, -3920, -31780, 3500, -648, 391, 40
61909, 67, 933, 310, -3500, -27580, 3360, -637, 388, 48
61910, 73, 949, 304, -2870, -22050, 3780, -640, 390, 49
61911, 8, 939, 314, -1890, -16800, 3920, -643, 385, 48
61912, 49, 947, 315, -1610, -16170, 3570, -642, 390, 43
61913, 51, 974, 308, -1330, -12600, 3570, -640, 391, 42
61914, 11, 969, 309, -1190, -8400, 3640, -652, 390, 46
61915, -8, 950, 294, -1190, -11620, 2870, -645, 387, 40
61916, 52, 932, 314, -1260, -8680, 2800, -637, 388, 42
61917, -11, 950, 302, -1120, -5740, 2940, -645, 381, 39
61918, 12, 959, 299, -840, -6300, 2450, -649, 384, 42
61919, -68, 948, 306, -770, -7350, 2450, -637, 390, 46
61920, -8, 969, 319, -770, -8470, 1680, -639, 381, 48
61921, 23, 956, 323, -1120, -9100, 1050, -639, 385, 43
61922, -95, 968, 289, -1610, -10150, 1260, -648, 384, 55
61923, -32, 928, 319, -1960, -16520, 350, -643, 391, 46
61924, -44, 935, 295, -2450, -16660, -140, -643, 387, 36
61925, 20, 972, 318, -2730, -14910, -700, -654, 394, 40
61926, 94, 985, 347, -2310, -12600, -630, -646, 375, 39
61927, 29, 979, 317, -1540, -9940, -70, -643, 384, 42
61928, 51, 928, 316, -700, -5460, 210, -646, 378, 42
61929, -1, 911, 305, 560, 350, 420, -651, 384, 49
61930, 17, 952, 292, 1050, 1680, 770, -646, 382, 33
61931, 24, 965, 296, 1120, 4200, 1050, -639, 391, 42
61932, 1, 970, 294, 1190, 5110, 1540, -643, 387, 36
61933, -28, 968, 294, 980, 6020, 1750, -649, 388, 42
61934, -41, 962, 292, 1190, 7840, 2240, -637, 378, 45
61935, -11, 957, 296, 1400, 8890, 2800, -646, 396, 42
61936, -23, 953, 290, 1610, 10990, 3360, -648, 378, 46
61937, 20, 944, 300, 1890, 11760, 3990, -639, 391, 39
61938, 0, 954, 293, 2170, 14770, 4760, -648, 381, 46
61939, -12, 959, 290, 2870, 21350, 6020, -642, 378, 30
61940, 3, 960, 299, 3080, 23100, 6580, -645, 381, 42
61941, -26, 963, 287, 2870, 23940, 7000, -651, 393, 48
61942, -11, 955, 289, 2660, 23730, 7350, -645, 388, 34
61943, -39, 965, 289, 2310, 22330, 7770, -651, 381, 42
61944, -55, 959, 285, 2310, 21140, 7910, -645, 384, 37
61945, -42, 954, 294, 2170, 19460, 7910, -648, 382, 37
61946, -54, 956, 293, 2030, 17500, 7980, -646, 373, 40
61947, -56, 952, 293, 1820, 14560, 7910, -648, 387, 34
61948, 4, 957, 292, 1050, 10290, 7560, -649, 378, 24
61949, 30, 950, 296, 1120, 11200, 7490, -657, 379, 31
61950, 58, 966, 294, 1680, 12740, 7490, -654, 381, 39
61951, 82, 978, 277, 2450, 15120, 7770, -649, 381, 33
61952, 83, 955, 269, 3220, 18760, 8190, -648, 376, 33
61953, -31, 894, 284, 3500, 18830, 7700, -658, 372, 39
61954, 1, 955, 269, 3010, 17360, 7070, -649, 381, 37
61955, 26, 1021, 267, 2520, 15120, 6790, -651, 372, 36
61956, 5, 1028, 263, 2030, 13650, 6230, -657, 375, 31
61957, 33, 926, 286, 700, 13300, 5460, -654, 378, 43
61958, 72, 941, 300, 490, 12390, 5040, -657, 381, 22
61959, 100, 1024, 275, 1120, 14350, 5110, -658, 379, 37
61960, 118, 1021, 254, 2100, 19110, 5950, -654, 387, 27
61961, -11, 913, 261, 3010, 23590, 6580, -658, 372, 30
61962, -38, 911, 232, 4200, 19950, 5670, -654, 384, 30
61963, 58, 1010, 243, 4760, 19460, 5460, -654, 367, 31
61964, 16, 1039, 210, 5250, 20440, 5740, -652, 376, 28
61965, -66, 976, 219, 5250, 19250, 5810, -660, 375, 33
61966, -50, 925, 219, 4480, 12810, 4830, -655, 384, 31
61967, -54, 1032, 232, 2240, 4060, 3290, -649, 369, 18
61968, 18, 1028, 243, 1610, -3290, 2520, -654, 372, 25
61969, 19, 996, 226, 1470, -770, 2520, -660, 381, 28
61970, 55, 941, 254, 1400, 420, 2730, -661, 364, 24
61971, 64, 931, 251, 840, -980, 2170, -664, 363, 28
61972, 13, 952, 242, 700, 980, 2170, -658, 375, 34
61973, 55, 955, 258, 910, 2520, 2380, -661, 370, 31
61974, 0, 975, 255, 1190, 4760, 2450, -657, 364, 22
61975, 44, 978, 268, 1470, 5600, 2660, -658, 375, 30
61976, 38, 969, 267, 1750, 6300, 2800, -666, 367, 27
61977, -18, 957, 250, 1610, 6580, 2730, -654, 367, 25
61978, 21, 949, 262, 1470, 5880, 2660, -664, 375, 30
61979, -14, 961, 248, 1330, 5180, 2660, -655, 373, 21
61980, 2, 954, 260, 1120, 4620, 2660, -657, 373, 25
61981, -14, 961, 264, 1540, 1330, 2660, -657, 373, 18
61982, 3, 1045, 223, 2940, 1470, 3150, -663, 363, 28
61983, 41, 1041, 214, 4550, 4620, 3920, -660, 372, 25
61984, 38, 924, 228, 6020, 9240, 4760, -664, 373, 36
61985, 20, 973, 219, 7350, 13300, 5040, -663, 361, 30
61986, 68, 1039, 198, 7070, 13580, 5250, -661, 379, 22
61987, 51, 1008, 196, 6230, 15470, 5810, -658, 367, 25
61988, 0, 936, 215, 4690, 16450, 5670, -657, 366, 18
61989, -23, 936, 219, 2800, 13580, 4760, -667, 367, 30
61990, 83, 1055, 239, -70, 10360, 4130, -663, 373, 28
61991, 97, 1013, 259, 0, 13790, 4690, -667, 378, 28
61992, 81, 938, 291, 700, 18060, 5320, -663, 366, 19
61993, 40, 916, 288, 1750, 22050, 5740, -666, 361, 25
61994, 32, 935, 270, 2870, 24920, 6230, -661, 361, 16
61995, -22, 909, 246, 4200, 28700, 7700, -664, 375, 22
61996, -47, 904, 254, 3920, 27650, 7840, -667, 367, 24
61997, -34, 949, 254, 3150, 24570, 7560, -667, 370, 16
61998, -12, 1026, 253, 2170, 21280, 7350, -675, 370, 24
61999, 22, 1030, 278, 700, 18270, 7350, -660, 375, 21
62000, -63, 1001, 285, 210, 18340, 7420, -666, 364, 28
62001, -84, 933, 294, -140, 4900, 5880, -669, 372, 13
62002, -103, 940, 242, -630, -70, 5530, -669, 363, 21
62003, 20, 939, 275, -700, -1680, 5810, -669, 364, 16
62004, 59, 938, 268, -280, 1120, 6300, -675, 366, 10
62005, 13, 957, 268, -70, 2870, 6650, -666, 366, 19
62006, 77, 969, 290, -210, 3500, 6790, -664, 366, 7
62007, 6, 993, 265, -280, 4620, 6860, -664, 367, 15
62008, 49, 980, 274, -630, 4340, 6790, -664, 361, 9
62009, 114, 944, 278, -350, 6790, 6650, -663, 361, 7
62010, 73, 950, 268, 70, 10150, 6790, -669, 361, 7
62011, 113, 950, 280, 630, 12880, 7000, -664, 364, 9
62012, 86, 958, 268, 1260, 15680, 7420, -678, 366, 10
62013, 44, 946, 261, 2100, 20580, 7980, -679, 366, 10
62014, 9, 966, 264, 2170, 22890, 8190, -676, 358, 12
62015, -36, 933, 266, 1750, 14140, 7350, -672, 364, 9
62016, -51, 957, 228, 1120, 12810, 7140, -670, 364, 1
62017, 15, 970, 251, 490, 9800, 7350, -666, 369, 1
62018, 0, 995, 267, -770, 1470, 6930, -678, 361, 9
62019, -53, 983, 258, -1050, -140, 6650, -676, 363, 4
62020, 10, 953, 271, -1260, -2870, 6440, -678, 367, 6
62021, -9, 964, 249, -1190, -3640, 6160, -681, 363, 7
62022, 59, 949, 263, -1120, -5950, 6020, -676, 363, 6
62023, 76, 959, 263, -1260, -7420, 5950, -670, 364, 7
62024, 34, 983, 245, -1470, -6510, 5600, -679, 358, 4
62025, 113, 997, 270, -1610, -6160, 5320, -678, 360, 9
62026, 84, 1020, 237, -1680, -4200, 5180, -675, 376, -1
62027, 79, 970, 253, -1400, -1190, 5110, -684, 361, 13
62028, 137, 940, 242, -1330, 2100, 5180, -670, 363, 13
62029, 81, 945, 234, -910, 6300, 5390, -679, 367, 12
62030, 75, 972, 250, -490, 8330, 5670, -670, 361, 6
62031, 42, 954, 243, -70, 7980, 5740, -679, 370, 12
62032, 75, 947, 251, 490, 7910, 4620, -681, 361, 7
62033, 130, 1001, 242, 700, 9310, 4620, -681, 358, -4
62034, 119, 1005, 222, 770, 11340, 5040, -670, 358, -6
62035, 113, 968, 236, 700, 13930, 5250, -672, 357, -3
62036, 75, 941, 238, 490, 16730, 4760, -684, 369, 4
62037, 111, 1000, 225, 770, 18410, 4830, -681, 367, 10
62038, 125, 981, 223, 1400, 21770, 5180, -681, 358, 6
62039, 117, 917, 230, 2100, 25410, 5460, -678, 358, 1
62040, 88, 895, 232, 2520, 27580, 5530, -682, 360, -1
62041, 135, 997, 215, 3150, 29470, 5600, -687, 364, 7
62042, 104, 1010, 217, 3290, 32410, 5740, -675, 360, 1
62043, 69, 982, 225, 3290, 32550, 5600, -682, 360, 6
62044, 11, 961, 225, 2730, 29260, 4970, -681, 360, -1
62045, 131, 993, 222, 2380, 26320, 4340, -688, 360, 1
62046, 145, 1010, 189, 2100, 36820, 5460, -679, 360, -4
62047, 164, 956, 202, 2660, 41580, 6230, -684, 364, -4
62048, 198, 923, 211, 3500, 50610, 7420, -679, 366, -7
62049, 71, 871, 213, 4480, 59360, 9030, -684, 361, 4
62050, 288, 892, 252, 9240, 81200, 10710, -685, 360, -7
62051, 423, 1000, 185, 10570, 108920, 13650, -688, 355, -19
62052, 258, 1015, 184, 11480, 121520, 16240, -690, 366, -4
62053, 171, 942, 193, 11970, 129080, 17430, -682, 370, -10
62054, 74, 933, 171, 11830, 132720, 18760, -682, 358, -21
62055, 126, 1044, 176, 10290, 134960, 20650, -690, 361, -28
62056, 79, 1015, 174, 10500, 140560, 21840, -685, 352, -28
62057, 42, 913, 161, 10640, 140560, 22960, -690, 361, -36
62058, -21, 868, 165, 10290, 139930, 23870, -699, 357, -37
62059, 19, 920, 162, 9240, 135800, 24850, -691, 366, -39
62060, 86, 1024, 203, 7420, 130900, 26250, -694, 358, -51
62061, 119, 1060, 188, 7560, 130830, 26530, -693, 355, -54
62062, 110, 1080, 200, 7280, 129920, 26810, -690, 355, -54
62063, 22, 1052, 176, 6510, 126840, 26110, -694, 354, -60
62064, -87, 995, 177, 3290, 103600, 23520, -696, 343, -73
62065, -113, 1001, 175, 1540, 89740, 22330, -705, 349, -72
62066, -95, 967, 182, -140, 75320, 21000, -700, 345, -81
62067, -61, 912, 198, -1540, 61040, 19740, -694, 352, -81
62068, 23, 963, 202, -2450, 55020, 18480, -703, 348, -87
62069, -31, 1021, 224, -3290, 46690, 18200, -702, 345, -82
62070, -111, 946, 228, -3430, 37730, 18200, -688, 346, -84
62071, -178, 909, 206, -3640, 29190, 17360, -703, 334, -91
62072, -174, 942, 211, -4410, 17920, 16660, -697, 340, -99
62073, -155, 1001, 211, -5390, 8190, 15400, -705, 337, -91
62074, -208, 1011, 229, -8820, -18620, 13440, -696, 342, -84
62075, -198, 1008, 235, -11060, -34300, 12530, -703, 333, -90
62076, -169, 1042, 234, -12740, -46410, 11620, -700, 336, -91
62077, -128, 1033, 234, -13790, -55580, 11340, -699, 336, -90
62078, -130, 935, 238, -14000, -68180, 10220, -708, 339, -87
62079, -9, 896, 244, -13440, -70630, 9170, -694, 342, -76
62080, 86, 902, 265, -12600, -72030, 8190, -702, 337, -85
62081, 194, 916, 281, -11480, -69720, 7070, -714, 333, -81
62082, 244, 923, 301, -10080, -65450, 6510, -708, 336, -76
62083, 269, 952, 314, -7560, -50890, 6020, -709, 336, -81
62084, 231, 973, 309, -6860, -47390, 4830, -709, 333, -67
62085, 236, 984, 299, -6510, -45780, 3150, -708, 334, -75
62086, 213, 996, 298, -6160, -42910, 1470, -711, 328, -67
62087, 202, 987, 298, -5810, -41510, 140, -706, 337, -61
62088, 71, 928, 286, -5180, -43960, -1890, -709, 331, -63
62089, -17, 943, 273, -5040, -50050, -3010, -712, 342, -58
62090, -34, 963, 261, -5110, -58450, -4480, -715, 333, -64
62091, -43, 973, 242, -5250, -65380, -5950, -717, 333, -67
62092, -122, 958, 239, -6720, -83300, -9100, -702, 331, -58
62093, -91, 987, 237, -8120, -95480, -10640, -711, 330, -54
62094, -150, 1015, 221, -9660, -106470, -12110, -702, 333, -37
62095, -125, 1029, 222, -11480, -120820, -13720, -705, 333, -52
62096, -128, 1026, 208, -12880, -130690, -14980, -711, 336, -45
62097, 85, 911, 202, -14560, -146020, -18270, -708, 336, -37
62098, 427, 845, 218, -13020, -125300, -17920, -711, 330, -21
62099, 514, 898, 252, -9730, -98560, -16800, -703, 334, -13
62100, 600, 955, 275, -6160, -72310, -14630, -703, 330, -19
62101, 605, 932, 324, -3360, -48230, -12670, -693, 348, -15
62102, 370, 1035, 272, -350, -21910, -12740, -702, 339, -22
62103, 251, 1042, 222, 770, -12040, -13370, -700, 340, -18
62104, 163, 967, 238, 1330, -6020, -13650, -694, 336, -19
62105, 73, 869, 236, 1120, -3780, -13510, -700, 339, -19
62106, -31, 895, 236, 210, -7630, -12460, -688, 330, -13
62107, 5, 939, 249, 350, -7770, -11480, -708, 334, -9
62108, -7, 931, 260, 1330, -4130, -10360, -705, 331, -15
62109, 11, 923, 290, 2170, 70, -9240, -699, 336, -7
62110, 56, 963, 291, 2660, 2800, -8260, -690, 333, -7
62111, 162, 1026, 266, 2870, 8820, -5950, -694, 334, -10
62112, 119, 964, 270, 2730, 10570, -5320, -693, 339, -10
62113, 71, 932, 272, 2380, 10220, -5320, -697, 342, -16
62114, 58, 966, 265, 2100, 9100, -5810, -693, 331, -19
62115, 83, 981, 264, 2030, 8610, -6160, -691, 340, -16
62116, 113, 915, 285, 2240, 9450, -6300, -691, 331, -21
62117, 104, 942, 284, 2100, 8190, -6300, -696, 345, -18
62118, 76, 983, 283, 2170, 6720, -6370, -693, 339, -12
62119, 52, 995, 282, 2170, 4760, -6650, -682, 337, -13
62120, -14, 932, 292, 1540, -3290, -7840, -693, 340, -12
62121, 6, 943, 291, 980, -9310, -8610, -681, 336, -22
62122, 43, 976, 278, 350, -13860, -9380, -691, 348, -15
62123, 59, 967, 292, 0, -15890, -9800, -688, 337, -12
62124, 51, 951, 297, -490, -17780, -10220, -687, 336, -12
62125, 72, 943, 308, -1190, -20440, -10710, -691, 346, -10
62126, 79, 948, 307, -1260, -19460, -10780, -684, 339, -13
62127, 78, 952, 310, -1120, -17710, -10780, -691, 343, -16
62128, 70, 934, 319, -1050, -16800, -10920, -688, 342, -13
62129, 76, 944, 328, -1050, -16660, -11270, -684, 340, -12
62130, 89, 982, 328, -910, -16030, -11340, -681, 330, -10
62131, 102, 969, 327, -420, -14070, -11340, -693, 343, -6
62132, 88, 942, 323, 70, -11830, -11200, -681, 351, -10
62133, 98, 932, 324, 630, -9520, -10990, -691, 346, -6
62134, 97, 944, 313, 1610, -2380, -10080, -685, 336, -3
62135, 59, 939, 301, 1820, 630, -9590, -679, 336, -7
62136, 56, 943, 304, 1680, 2380, -9170, -693, 340, -10
62137, 59, 964, 304, 1190, 4620, -8960, -682, 340, -7
62138, 41, 1032, 300, 630, 4060, -8750, -682, 334, -3
62139, 29, 1011, 309, -700, 3360, -8470, -682, 340, -4
62140, -11, 953, 314, -1050, 1190, -8190, -685, 343, -4
62141, -2, 920, 311, -1120, -140, -7910, -684, 343, -9
62142, 291, 872, 330, -140, 3850, -7980, -673, 340, -13
62143, 142, 876, 322, 3080, 24080, -5670, -678, 343, -4
62144, 87, 883, 304, 3500, 21770, -5040, -678, 339, -9
62145, 66, 891, 332, 3850, 23100, -4900, -678, 348, -10
62146, -16, 1005, 304, 3990, 23310, -4480, -682, 345, -12
62147, 16, 1049, 302, 3850, 23450, -3990, -676, 336, -18
62148, 34, 940, 308, 3010, 21280, -3990, -684, 354, -18
62149, 37, 925, 303, 2170, 19180, -3920, -676, 348, -10
62150, 93, 950, 305, 1610, 18690, -3570, -678, 346, -18
62151, 95, 976, 300, 1470, 20650, -3010, -675, 345, -18
62152, 80, 933, 322, 1610, 23870, -2450, -676, 348, -15
62153, 41, 946, 325, 1960, 25970, -2100, -676, 346, -22
62154, 82, 971, 331, 2100, 26460, -1960, -678, 342, -12
62155, 110, 964, 331, 2310, 27510, -1680, -684, 343, -24
62156, 91, 937, 331, 2730, 28700, -1610, -681, 352, -27
62157, 64, 891, 332, 3430, 27020, -2100, -682, 345, -22
62158, 88, 946, 320, 3780, 26040, -2310, -679, 343, -31
62159, 90, 981, 316, 4060, 26390, -2590, -682, 346, -25
62160, 70, 979, 316, 3780, 25550, -2870, -678, 349, -25
62161, 47, 974, 314, 3010, 22680, -3430, -679, 345, -22
62162, 47, 1050, 310, 840, 15820, -4340, -681, 357, -33
62163, 1, 1020, 306, 70, 13650, -4690, -682, 352, -28
62164, -3, 959, 329, -420, 11270, -5180, -684, 351, -25
62165, 5, 913, 332, -490, 9380, -5390, -681, 351, -40
62166, 35, 900, 325, -210, 8890, -5390, -676, 352, -37
62167, 46, 899, 324, 1190, 11550, -4900, -672, 358, -34
62168, 38, 916, 325, 1610, 12040, -4690, -681, 357, -33
62169, 7, 944, 332, 1750, 12740, -4550, -681, 367, -28
62170, -3, 988, 326, 1610, 11970, -4270, -675, 352, -27
62171, -10, 1039, 319, 280, 9940, -4060, -673, 355, -27
62172, -52, 1011, 313, -770, 8050, -3850, -679, 361, -28
62173, -56, 987, 326, -1750, 5250, -3430, -673, 357, -27
62174, -79, 950, 326, -2380, 3010, -2870, -673, 358, -33
62175, -88, 928, 318, -2590, 1610, -2030, -675, 357, -22
62176, -110, 856, 330, -1820, -140, -1120, -679, 354, -25
62177, -79, 851, 334, -1540, -2380, -840, -675, 348, -24
62178, -75, 894, 333, -1540, -5600, -700, -673, 352, -22
62179, -65, 978, 335, -1750, -10150, -700, -675, 354, -27
62180, -69, 1045, 334, -2100, -13650, -770, -678, 357, -31
62181, -112, 1059, 329, -3990, -23380, -1680, -678, 354, -15
62182, -107, 1048, 322, -5180, -28910, -2100, -672, 346, -27
62183, -99, 1010, 319, -6440, -33320, -2520, -669, 355, -28
62184, -96, 929, 303, -7560, -37030, -3080, -669, 346, -21
62185, -120, 855, 307, -8400, -42770, -4200, -672, 348, -13
62186, -39, 819, 334, -7980, -42630, -4480, -669, 354, -13
62187, 18, 797, 359, -6510, -38990, -4620, -670, 355, -15
62188, 67, 850, 365, -4340, -32900, -4900, -675, 354, -15
62189, 137, 933, 362, -1960, -25480, -4620, -660, 343, -19
62190, 118, 1024, 346, 700, -12320, -4550, -666, 348, -27
62191, 53, 1037, 311, 140, -11130, -5040, -667, 349, -16
62192, 23, 998, 327, -1540, -13930, -5880, -669, 345, -15
62193, 18, 998, 284, -3570, -17780, -7140, -667, 343, -16
62194, 38, 957, 299, -4760, -19110, -8260, -660, 346, -9
62195, 166, 882, 370, -3290, -13440, -10080, -663, 346, -13
62196, 244, 946, 349, -700, -4690, -10220, -664, 354, -21
62197, 282, 947, 358, 2240, 6860, -9870, -655, 337, -9
62198, 235, 977, 315, 4270, 16100, -9590, -661, 343, -16
62199, 98, 959, 313, 3570, 18620, -10360, -664, 342, -16
62200, 114, 1070, 270, 2800, 18900, -10990, -661, 349, -19
62201, 225, 1106, 251, 2450, 25060, -10780, -661, 342, -16
62202, 176, 1003, 237, 2240, 34440, -10500, -663, 349, -15
62203, 92, 809, 278, 910, 37310, -10430, -655, 343, -27
62204, 174, 797, 322, -560, 33320, -11340, -664, 346, -24
62205, 304, 942, 311, 2450, 44660, -10710, -660, 343, -25
62206, 341, 909, 327, 7070, 62370, -9310, -660, 348, -19
62207, 198, 854, 329, 10850, 74900, -8680, -660, 346, -27
62208, 146, 832, 325, 11900, 73640, -8470, -657, 352, -28
62209, 113, 958, 264, 9660, 60480, -9520, -648, 348, -28
62210, 83, 995, 259, 9030, 59010, -9940, -664, 351, -27
62211, 54, 983, 271, 8960, 58240, -10640, -651, 352, -30
62212, 36, 977, 291, 8540, 56630, -11270, -648, 345, -34
62213, 127, 1057, 283, 7280, 52290, -11830, -646, 349, -31
62214, 123, 1050, 275, 7000, 52990, -11690, -652, 342, -30
62215, 89, 994, 290, 7000, 54460, -11620, -652, 346, -36
62216, 20, 900, 284, 7210, 55160, -11620, -649, 345, -42
62217, 50, 867, 284, 7630, 54670, -11550, -643, 354, -39
62218, 126, 911, 239, 9450, 60830, -10500, -652, 346, -46
62219, 70, 926, 267, 9940, 63770, -9800, -657, 349, -40
62220, -4, 970, 250, 9520, 62230, -9590, -649, 349, -48
62221, -35, 1050, 255, 8120, 56490, -9660, -648, 345, -45
62222, -14, 1135, 242, 6580, 52360, -9800, -645, 355, -39
62223, -20, 1064, 265, 4270, 49630, -9450, -651, 354, -48
62224, -20, 996, 265, 3570, 48230, -9100, -639, 358, -51
62225, 10, 959, 262, 3430, 47040, -8610, -645, 352, -46
62226, 39, 923, 241, 3780, 48860, -7980, -634, 360, -49
62227, -52, 812, 245, 4480, 51870, -6790, -646, 363, -54
62228, -65, 843, 254, 4410, 50190, -6440, -640, 360, -48
62229, -1, 966, 252, 4550, 49000, -5880, -642, 367, -45
62230, 44, 1061, 247, 5110, 51380, -5040, -642, 363, -49
62231, 4, 1094, 247, 5530, 54110, -4270, -637, 355, -49
62232, -104, 1071, 244, 4130, 49070, -3780, -636, 352, -58
62233, -63, 1075, 227, 3150, 44590, -3640, -639, 360, -49
62234, -29, 1003, 220, 2590, 44030, -3010, -636, 360, -49
62235, -57, 902, 235, 2240, 44520, -2380, -637, 357, -54
62236, -86, 829, 201, 2170, 43260, -1960, -637, 355, -48
62237, -101, 995, 194, 1050, 36890, -1050, -642, 355, -49
62238, -104, 1124, 208, 420, 34230, -700, -634, 348, -45
62239, -110, 1251, 219, -630, 30730, -490, -642, 361, -48
62240, -127, 1185, 244, -2030, 26530, -420, -633, 348, -57
62241, -174, 933, 215, -4270, 15400, -630, -643, 351, -48
62242, -150, 828, 185, -4340, 13090, -630, -634, 346, -55
62243, -174, 730, 161, -4200, 12040, -280, -634, 352, -46
62244, -190, 721, 194, -3920, 9660, -70, -630, 355, -60
62245, -180, 873, 221, -3990, 6440, 210, -637, 345, -64
62246, -99, 1246, 222, -3780, 6020, 1330, -636, 355, -51
62247, -159, 1203, 231, -4270, 6230, 1820, -634, 348, -46
62248, -206, 1090, 255, -5390, 3710, 1750, -636, 351, -55
62249, -212, 1028, 191, -6790, -560, 1960, -640, 352, -54
62250, -126, 972, 186, -7560, -1820, 2800, -633, 349, -58
62251, -119, 804, 202, -7630, 2380, 3430, -634, 354, -57
62252, -152, 827, 219, -7070, 4760, 3920, -625, 351, -61
62253, -41, 873, 225, -5880, 8680, 5040, -636, 354, -51
62254, -19, 938, 241, -3920, 16100, 6090, -630, 348, -60
62255, -6, 969, 263, -490, 30170, 8400, -637, 349, -55
62256, -58, 1025, 215, 0, 33250, 9170, -633, 351, -55
62257, -30, 1037, 222, 0, 34720, 9940, -633, 348, -58
62258, -77, 1019, 189, -350, 35700, 10640, -634, 345, -64
62259, -52, 948, 205, -910, 35560, 11200, -637, 348, -54
62260, -36, 950, 163, -2030, 34650, 12180, -633, 355, -63
62261, -98, 921, 162, -3570, 34160, 12390, -631, 340, -69
62262, -159, 891, 216, -4760, 27930, 12460, -639, 351, -66
62263, -110, 1076, 279, -5110, 21560, 12390, -643, 351, -66
62264, 40, 1287, 204, -3710, 29470, 13790, -642, 334, -66
62265, -258, 883, 206, -4690, 27650, 13510, -648, 346, -60
62266, -366, 751, 205, -7560, 12740, 12670, -643, 342, -67
62267, -212, 875, 187, -10220, -3010, 11830, -645, 349, -64
62268, -95, 993, 163, -10990, -8050, 11900, -640, 339, -57
62269, -229, 855, 277, -8540, -5460, 12110, -642, 348, -63
62270, -186, 900, 325, -7280, -9380, 11690, -648, 346, -81
62271, -103, 1039, 268, -5740, -11410, 11550, -640, 348, -60
62272, -13, 1076, 255, -4130, -9100, 11550, -642, 354, -69
62273, -133, 1025, 219, -3710, -7490, 11480, -655, 357, -51
62274, -264, 994, 225, -8120, -26950, 9590, -655, 358, -61
62275, -152, 1107, 218, -10290, -35280, 8750, -645, 357, -57
62276, -95, 1127, 220, -10990, -34790, 8120, -649, 363, -55
62277, -132, 975, 264, -10780, -30940, 7770, -652, 352, -63
62278, -118, 874, 301, -8820, -24920, 7350, -652, 361, -57
62279, 83, 973, 298, -6580, -16310, 8050, -651, 361, -51
62280, 46, 944, 268, -4130, -4200, 9170, -648, 364, -57
62281, -24, 808, 294, -2590, 4270, 9940, -654, 354, -55
62282, -124, 746, 296, -2380, 6790, 10220, -657, 363, -55
62283, 46, 998, 271, -2030, 9310, 11340, -658, 357, -51
62284, 75, 1046, 286, -1120, 17010, 12530, -648, 364, -55
62285, 17, 1051, 300, -490, 23520, 13300, -654, 352, -45
62286, -51, 1072, 297, -770, 23450, 13720, -658, 352, -57
62287, 7, 1154, 302, -1820, 21490, 13790, -652, 357, -60
62288, -6, 918, 263, -3290, 21770, 14070, -654, 361, -45
62289, -65, 792, 249, -3220, 21770, 13930, -657, 355, -49
62290, -2, 798, 213, -3150, 21980, 14000, -655, 348, -42
62291, 5, 934, 238, -3080, 20650, 14350, -658, 354, -52
62292, -18, 983, 281, -3360, 14980, 14560, -657, 354, -51
62293, 0, 1091, 282, -3150, 13020, 14420, -661, 358, -52
62294, -20, 1037, 260, -2800, 13790, 14560, -658, 349, -52
62295, -22, 878, 259, -2660, 15190, 14700, -664, 346, -51
62296, -94, 776, 230, -2520, 13790, 14770, -661, 357, -54
62297, -26, 898, 211, -2170, 10570, 15470, -669, 343, -43
62298, -8, 957, 249, -1820, 11620, 16030, -676, 346, -57
62299, -56, 995, 244, -1540, 12460, 16240, -670, 351, -43
62300, -40, 1048, 256, -1750, 9940, 16240, -670, 354, -51
62301, -43, 1094, 240, -2380, 7840, 16240, -670, 351, -45
62302, -61, 1080, 234, -3640, 3430, 16100, -658, 351, -57
62303, -71, 990, 231, -4340, -280, 15890, -670, 351, -48
62304, -109, 893, 206, -4830, -3220, 15260, -676, 358, -46
62305, -83, 869, 212, -5250, -8050, 14910, -679, 357, -58
62306, -34, 930, 205, -5880, -12670, 14000, -673, 355, -58
62307, -62, 917, 218, -6440, -14770, 13160, -694, 358, -51
62308, -77, 921, 276, -6510, -18830, 12320, -682, 351, -55
62309, 33, 1074, 267, -5390, -19250, 11690, -685, 357, -46
62310, 151, 1121, 245, -3290, -13090, 11900, -685, 360, -49
62311, 101, 840, 248, 70, 6930, 12110, -682, 351, -45
62312, 50, 815, 203, -420, 8330, 11760, -688, 361, -51
62313, 25, 900, 181, -1610, 5320, 11690, -685, 363, -55
62314, 87, 1008, 176, -2030, 5040, 11550, -690, 357, -57
62315, 66, 1007, 210, -2170, 7280, 11480, -688, 354, -58
62316, -32, 926, 245, -2590, 4620, 10220, -685, 363, -51
62317, -4, 1016, 224, -2940, -280, 9660, -694, 361, -60
62318, 3, 1046, 231, -3080, -4060, 9520, -699, 361, -54
62319, 13, 1050, 233, -2800, -6510, 8960, -702, 369, -55
62320, -85, 1017, 229, -3360, -14280, 7420, -708, 367, -63
62321, -123, 983, 214, -4270, -19600, 6720, -702, 369, -57
62322, -109, 915, 196, -4830, -24780, 5880, -702, 372, -54
62323, -127, 893, 196, -5530, -30520, 5180, -709, 370, -55
62324, -113, 894, 211, -6020, -35280, 4270, -694, 363, -54
62325, -131, 993, 238, -6370, -42910, 2800, -700, 375, -48
62326, -181, 986, 235, -6650, -47600, 1960, -709, 369, -45
62327, -158, 955, 257, -6580, -52220, 1190, -708, 367, -40
62328, -157, 952, 236, -5880, -55930, 630, -703, 369, -49
62329, -132, 977, 247, -4620, -55510, 700, -699, 376, -42
62330, -226, 1010, 250, -4200, -58940, 490, -712, 369, -36
62331, -308, 1037, 208, -5810, -66990, -140, -709, 364, -40
62332, -338, 1032, 213, -7630, -77420, -1330, -708, 354, -27
62333, -288, 1086, 185, -9380, -86380, -2170, -709, 358, -27
62334, -229, 962, 216, -10430, -89600, -3780, -709, 358, -30
62335, -221, 966, 257, -10150, -90510, -4550, -712, 361, -22
62336, -154, 1153, 215, -10010, -91910, -4830, -711, 361, -19
62337, -138, 1106, 259, -10150, -88340, -4760, -717, 361, -30
62338, -183, 997, 260, -10500, -87710, -5040, -706, 358, -15
62339, -194, 964, 221, -10990, -93730, -6370, -709, 361, -13
62340, -165, 885, 221, -10220, -88760, -6440, -708, 366, -19
62341, -103, 787, 224, -9030, -82320, -6650, -715, 369, -7
62342, -137, 694, 273, -8610, -78120, -7000, -715, 361, -9
62343, -96, 864, 215, -8400, -78470, -7560, -711, 366, -4
62344, -8, 1199, 277, -7630, -66570, -7280, -720, 370, -7
62345, 14, 1162, 321, -7070, -58800, -6790, -714, 364, 3
62346, -48, 1109, 306, -6790, -54670, -6790, -706, 367, 1
62347, -22, 1001, 293, -7140, -54880, -6580, -705, 363, 13
62348, -43, 741, 244, -6650, -49140, -6440, -711, 366, 0
62349, -44, 666, 241, -5390, -44590, -6650, -715, 373, 9
62350, -5, 730, 247, -4410, -41230, -6650, -718, 369, 10
62351, 12, 857, 264, -3080, -37100, -6930, -706, 367, 16
62352, 94, 1040, 325, -1890, -33460, -7140, -714, 375, 7
62353, 230, 1295, 339, 630, -21140, -7140, -712, 364, 13
62354, 213, 1167, 289, 1610, -14070, -7000, -712, 367, 10
62355, 88, 977, 232, 1400, -10080, -6720, -708, 370, 12
62356, -12, 821, 211, 0, -11620, -6930, -712, 369, 7
62357, -130, 762, 197, -2450, -18340, -7770, -720, 375, 6
62358, -29, 844, 241, -5530, -28210, -9800, -717, 369, 10
62359, 82, 873, 307, -4550, -24850, -10010, -711, 375, 1
62360, 124, 892, 315, -2590, -17500, -9730, -718, 367, 7
62361, 177, 908, 335, 140, -10360, -9450, -709, 378, 13
62362, 212, 913, 329, 4060, 1540, -9240, -717, 378, 10
62363, 207, 1185, 271, 5390, 6650, -8750, -720, 378, 7
62364, 190, 1442, 263, 5040, 14280, -7980, -708, 376, 4
62365, -7, 1333, 259, 2450, 13860, -7490, -715, 381, 1
62366, -101, 981, 276, -1960, 3780, -8190, -712, 382, 4
62367, 44, 1003, 225, -7840, -14840, -9940, -723, 390, 10
62368, 93, 952, 247, -7280, -7980, -9590, -714, 378, 12
62369, 108, 718, 298, -5040, 700, -9030, -721, 381, 3
62370, 66, 576, 325, -2520, 4760, -9030, -714, 379, 3
62371, 169, 637, 321, 280, 6510, -8470, -712, 387, 16
62372, 271, 1095, 258, 7140, 27370, -6860, -715, 384, 10
62373, 129, 1188, 267, 8050, 35280, -5810, -717, 390, 6
62374, 2, 1134, 273, 5740, 29330, -5670, -724, 375, -7
62375, -107, 1139, 263, 980, 15050, -6860, -715, 387, -1
62376, 59, 1051, 218, -6300, -1890, -9030, -718, 378, -1
62377, 120, 823, 240, -6300, 1820, -9590, -714, 387, 13
62378, 156, 647, 284, -4690, 7280, -10150, -718, 385, 0
62379, 262, 637, 310, -1890, 14000, -10570, -715, 378, 3
62380, 387, 742, 306, 2380, 24220, -10640, -721, 370, -3
62381, 453, 1051, 270, 10990, 54880, -9100, -711, 384, -6
62382, 318, 1086, 263, 12390, 62650, -8820, -714, 366, -12
62383, 163, 1105, 256, 10850, 58170, -9240, -717, 376, -27
62384, 111, 1194, 205, 7280, 48860, -10850, -714, 373, -16
62385, 135, 1153, 181, 560, 37030, -13580, -709, 378, -13
62386, 112, 722, 214, -1330, 32690, -14840, -715, 369, -19
62387, 169, 648, 223, -1890, 29540, -16310, -714, 382, -15
62388, 239, 691, 267, -700, 30800, -17290, -709, 384, -30
62389, 339, 856, 311, 2240, 38220, -17780, -708, 372, -19
62390, 383, 989, 322, 9520, 60270, -18130, -715, 375, -27
62391, 361, 997, 300, 11550, 65240, -18410, -699, 384, -30
62392, 274, 1032, 244, 11410, 66010, -18970, -706, 376, -39
62393, 206, 1040, 201, 9800, 64260, -19460, -709, 375, -30
62394, 77, 988, 212, 7000, 59710, -20300, -712, 387, -46
62395, 52, 1005, 245, 2100, 45010, -22260, -705, 375, -42
62396, 139, 1026, 240, 1890, 44520, -22260, -709, 385, -48
62397, 103, 972, 265, 2660, 48790, -22050, -700, 385, -46
62398, 68, 831, 286, 3710, 49980, -21770, -703, 381, -46
62399, -2, 810, 304, 4900, 43610, -21630, -699, 382, -57
62400, 67, 1008, 272, 6440, 45430, -21000, -688, 385, -64
62401, 59, 993, 280, 8260, 50190, -19670, -706, 379, -63
62402, -76, 953, 289, 8960, 52640, -18690, -696, 388, -60
62403, -178, 971, 244, 7490, 45360, -17850, -691, 391, -69
62404, -372, 1128, 218, -1190, 13510, -17010, -705, 399, -55
62405, -485, 1176, 252, -5950, -2310, -16730, -690, 388, -66
62406, -439, 1187, 288, -9240, -16100, -16310, -694, 405, -78
62407, -487, 1131, 231, -11270, -23800, -15610, -694, 403, -69
62408, -453, 908, 405, -11760, -32620, -15120, -702, 396, -73
62409, -131, 1104, 327, -6930, -37100, -13090, -702, 391, -67
62410, -166, 883, 313, -2730, -23170, -10920, -693, 397, -63
62411, -424, 569, 305, 350, -17080, -9100, -693, 387, -66
62412, -437, 701, 235, 630, -26600, -8260, -688, 390, -58
62413, -408, 1110, 233, -5670, -45290, -6160, -696, 394, -67
62414, -563, 1050, 266, -9660, -52150, -5880, -694, 394, -57
62415, -647, 707, 281, -12740, -62580, -6790, -685, 388, -57
62416, -461, 566, 284, -13370, -71750, -7560, -687, 379, -57
62417, -118, 735, 292, -10360, -66990, -7140, -687, 390, -57
62418, 23, 1003, 356, 2170, -19040, -1960, -682, 384, -46
62419, -40, 891, 423, 5950, -5390, 0, -688, 387, -55
62420, -176, 974, 339, 6720, -3500, 770, -682, 373, -58
62421, -77, 1104, 241, 5530, -3430, 1960, -690, 382, -57
62422, -135, 1147, 169, 3640, 2030, 3500, -678, 385, -54
62423, -290, 902, 219, -2520, -2100, 4970, -682, 378, -54
62424, -179, 910, 322, -5530, -12320, 4410, -687, 378, -52
62425, 31, 1054, 323, -5320, -13020, 4270, -682, 384, -63
62426, 196, 1120, 336, -1470, 3640, 5530, -685, 385, -54
62427, 288, 919, 323, 8680, 44170, 8120, -676, 376, -54
62428, 165, 665, 322, 10920, 48650, 8470, -685, 372, -73
62429, 165, 840, 210, 10990, 49700, 9170, -691, 372, -64
62430, 125, 970, 186, 9940, 51450, 10360, -690, 372, -69
62431, -63, 988, 165, 7420, 49280, 11130, -687, 373, -69
62432, -223, 1144, 280, -1610, 19040, 8680, -681, 375, -75
62433, -108, 1275, 328, -4900, 5320, 7000, -684, 373, -75
62434, 78, 1313, 366, -4830, 3150, 5880, -688, 369, -76
62435, 174, 1138, 341, -2100, 12320, 5670, -687, 378, -76
62436, 114, 818, 306, 1190, 23240, 5600, -685, 367, -84
62437, -45, 602, 242, 3570, 19880, 4690, -690, 376, -81
62438, 14, 790, 238, 3080, 14770, 4340, -684, 370, -85
62439, -40, 953, 198, 2660, 12530, 3920, -690, 375, -82
62440, -81, 1014, 256, 1610, 10640, 3220, -690, 378, -88
62441, -105, 1185, 312, -3500, -7210, 210, -687, 375, -87
62442, -64, 1266, 339, -5600, -15260, -1470, -682, 375, -91
62443, 18, 1263, 295, -5950, -15820, -2380, -682, 381, -87
62444, -16, 1075, 298, -4970, -9030, -2730, -679, 373, -87
62445, -53, 798, 310, -3710, -5460, -3010, -685, 370, -73
62446, 5, 715, 287, -1470, -5180, -4060, -673, 375, -76
62447, 4, 784, 215, 490, -630, -3990, -682, 382, -76
62448, 15, 782, 247, 2310, 6930, -3570, -678, 376, -73
62449, -77, 745, 264, 3080, 7770, -3570, -681, 378, -81
62450, -98, 833, 334, 2940, 3640, -4550, -685, 370, -75
62451, 1, 1217, 273, 2800, 3850, -4970, -681, 366, -84
62452, -35, 1091, 369, 3850, 4830, -5600, -682, 373, -84
62453, -76, 1100, 308, 4410, 2240, -6160, -676, 373, -72
62454, -40, 1031, 225, 4550, 3010, -6650, -673, 360, -81
62455, -304, 700, 101, 210, -7560, -7910, -678, 364, -76
62456, -413, 634, 170, -6020, -23660, -9870, -672, 367, -78
62457, -361, 753, 248, -10640, -46340, -12040, -678, 369, -73
62458, -59, 1069, 365, -11130, -50330, -13370, -667, 367, -78
62459, 156, 1346, 343, -6510, -33810, -13160, -678, 366, -78
62460, 35, 832, 414, 4830, 8400, -11900, -664, 367, -73
62461, -11, 667, 326, 7070, 9730, -12110, -669, 357, -79
62462, 91, 764, 258, 7630, 9520, -12180, -666, 358, -75
62463, 121, 903, 136, 8050, 15260, -11200, -667, 364, -64
62464, -74, 856, 141, 7770, 21280, -10500, -664, 369, -72
62465, -285, 955, 224, 1470, 1050, -12250, -660, 361, -70
62466, -177, 1209, 273, -1960, -9730, -13370, -661, 364, -75
62467, -19, 1329, 279, -2800, -10360, -13650, -675, 358, -72
62468, -83, 1191, 279, -2030, -3430, -13650, -661, 363, -75
62469, -103, 747, 328, 1050, -1540, -14420, -660, 355, -75
62470, -1, 785, 300, 3640, 1750, -14280, -664, 354, -67
62471, 55, 852, 218, 7070, 10850, -13230, -660, 360, -70
62472, -78, 749, 207, 9660, 19040, -12250, -664, 352, -67
62473, -258, 649, 234, 9100, 17220, -12180, -663, 370, -79
62474, -282, 1064, 226, 3080, -10500, -13790, -654, 366, -69
62475, -141, 1298, 257, 1400, -12740, -13510, -658, 373, -69
62476, -225, 1315, 271, 980, -5670, -12740, -652, 370, -72
62477, -277, 1024, 346, 350, -5810, -12180, -655, 376, -69
62478, -280, 903, 371, -210, -9870, -12110, -655, 372, -75
62479, -58, 1012, 275, 2730, -3990, -10080, -651, 376, -64
62480, -198, 901, 246, 5460, 5460, -8050, -654, 373, -63
62481, -336, 798, 299, 6300, 7000, -7140, -657, 372, -60
62482, -368, 891, 301, 4900, -5320, -7210, -642, 375, -67
62483, -329, 1170, 248, 350, -23940, -7350, -648, 372, -55
62484, -369, 1089, 237, -910, -27720, -7350, -654, 367, -54
62485, -393, 975, 284, -2240, -33670, -7770, -652, 370, -52
62486, -360, 1020, 327, -3640, -42000, -8610, -657, 366, -48
62487, -260, 1097, 292, -4270, -46970, -9100, -640, 370, -57
62488, -291, 826, 273, -2660, -40180, -9310, -648, 369, -46
62489, -367, 611, 268, -2030, -39970, -9870, -652, 360, -49
62490, -306, 729, 293, -2240, -43540, -10430, -645, 366, -46
62491, -210, 885, 250, -2100, -44590, -10850, -642, 364, -39
62492, -161, 1095, 205, -1190, -39270, -9730, -652, 370, -43
62493, -198, 907, 338, -490, -25270, -10150, -643, 366, -40
62494, -210, 1038, 287, -910, -25970, -9520, -649, 376, -39
62495, -155, 1083, 266, -1050, -19950, -8960, -636, 366, -43
62496, -182, 945, 284, -630, -14140, -7630, -649, 361, -39
62497, -171, 806, 283, 70, -7490, -5950, -648, 364, -33
62498, -184, 891, 241, 420, -6090, -5670, -640, 363, -40
62499, -209, 899, 307, 560, -2450, -4760, -642, 366, -30
62500, -143, 909, 261, 980, -980, -4830, -643, 364, -31
62501, -150, 945, 290, 1330, -2870, -5390, -639, 357, -31
62502, -98, 1019, 289, -420, -9590, -7350, -643, 369, -31
62503, -101, 1019, 316, -840, -12320, -9380, -645, 360, -34
62504, -13, 1047, 357, -700, -12530, -11550, -642, 366, -46
62505, 65, 1032, 269, 280, -8610, -13370, -633, 369, -30
62506, -11, 904, 250, 210, -3500, -16100, -648, 372, -37
62507, -88, 713, 266, -1330, -9100, -17710, -646, 367, -30
62508, -75, 798, 266, -1960, -11130, -19390, -640, 376, -28
62509, 24, 951, 274, -1330, -5250, -20160, -634, 376, -30
62510, 48, 1034, 257, -140, 3780, -20440, -646, 372, -36
62511, -57, 939, 388, -1610, 5110, -22820, -646, 381, -31
62512, 25, 1111, 334, -2030, 2310, -24290, -646, 370, -36
62513, 96, 1169, 300, -1400, 14070, -24220, -645, 372, -25
62514, 98, 966, 311, 350, 27020, -23660, -633, 385, -30
62515, 25, 687, 320, 1680, 35000, -23520, -637, 375, -22
62516, 107, 680, 338, 3570, 42000, -22470, -634, 376, -25
62517, 224, 913, 289, 6720, 54250, -20510, -634, 390, -28
62518, 152, 1006, 269, 10430, 72030, -17500, -640, 378, -21
62519, 33, 999, 333, 13020, 81340, -15470, -631, 381, -27
62520, -88, 991, 344, 11550, 70560, -13510, -634, 378, -16
62521, -103, 1143, 279, 10010, 66850, -12390, -628, 370, -27
62522, -138, 1111, 201, 9100, 64050, -10990, -634, 378, -21
62523, -256, 988, 176, 7420, 59640, -10010, -627, 373, -15
62524, -373, 934, 233, 4270, 47740, -9730, -628, 372, -18
62525, -252, 1139, 247, -2170, 17080, -9940, -630, 376, -27
62526, -220, 1196, 249, -2940, 16170, -9170, -639, 382, -21
62527, -222, 1075, 313, -2100, 18620, -8470, -628, 382, -27
62528, -245, 845, 297, -840, 20650, -7910, -619, 378, -25
62529, -292, 710, 269, 350, 20650, -7140, -633, 379, -31
62530, -76, 837, 199, 3290, 33810, -3780, -628, 373, -28
62531, -132, 819, 179, 4760, 42630, -1330, -622, 366, -36
62532, -235, 823, 243, 4550, 47530, 1190, -639, 388, -28
62533, -173, 1060, 227, 3150, 46410, 3290, -627, 370, -31
62534, -154, 1423, 198, -1120, 45780, 7840, -631, 384, -21
62535, -297, 1465, 335, -2730, 45430, 9520, -639, 382, -30
62536, -124, 1316, 287, -3780, 42700, 11900, -634, 384, -39
62537, -296, 937, 196, -3850, 48860, 14210, -636, 379, -33
62538, -286, 560, 199, -3150, 52500, 17360, -631, 382, -43
62539, -50, 394, 153, 1400, 71820, 25690, -637, 387, -43
62540, 90, 618, 138, 4970, 92890, 31360, -640, 382, -54
62541, 136, 992, 196, 6790, 111790, 37380, -646, 387, -61
62542, 66, 1286, 238, 5390, 120050, 42070, -640, 391, -46
62543, -94, 1607, 225, 1190, 112210, 45570, -646, 399, -51
62544, -137, 1842, 151, -9380, 90020, 50470, -660, 387, -52
62545, -193, 1507, 144, -13370, 83720, 52430, -648, 387, -58
62546, -234, 1020, 150, -17290, 74480, 53690, -666, 391, -66
62547, -333, 594, 111, -20300, 63070, 54950, -652, 388, -61
62548, -210, 470, 69, -20650, 52150, 58660, -661, 382, -64
62549, -78, 621, 134, -18970, 53130, 59500, -661, 384, -73
62550, -101, 800, 227, -16660, 45360, 58940, -664, 385, -72
62551, -28, 1082, 282, -15190, 33950, 57820, -669, 369, -78
62552, -72, 1410, 225, -14000, 19250, 56140, -669, 369, -85
62553, -552, 1102, 145, -17640, -33040, 48090, -675, 369, -81
62554, -795, 855, 85, -23590, -71540, 42700, -678, 376, -82
62555, -697, 889, 5, -29680, -113400, 36050, -682, 370, -76
62556, -506, 916, -28, -33180, -135870, 30380, -681, 369, -84
62557, -304, 815, 88, -32620, -136360, 25550, -681, 376, -78
62558, 103, 791, 271, -23030, -101990, 18970, -676, 361, -82
62559, 229, 923, 293, -15540, -73360, 18130, -687, 363, -76
62560, 322, 955, 286, -7630, -41440, 18830, -688, 366, -79
62561, 320, 862, 258, -1050, -11550, 19670, -690, 366, -64
62562, 70, 838, 172, 2520, 8750, 19530, -687, 369, -78
62563, 24, 1090, 71, -490, 2870, 18270, -690, 351, -72
62564, -52, 1157, 112, -4760, -5460, 16870, -690, 358, -75
62565, -116, 1160, 190, -8400, -13300, 15540, -685, 366, -69
62566, -104, 1150, 198, -10570, -17290, 14980, -693, 370, -85
62567, 32, 1037, 238, -6370, -2940, 15890, -700, 373, -79
62568, 47, 769, 253, -1890, 10150, 17150, -697, 366, -88
62569, 86, 614, 227, 2450, 21350, 18410, -691, 372, -87
62570, 130, 707, 134, 5460, 30240, 20370, -694, 370, -90
62571, 107, 878, 72, 5530, 37310, 21910, -702, 370, -87
62572, -194, 1149, 128, -4060, 17640, 21070, -697, 357, -94
62573, -142, 1373, 210, -10850, -1610, 19320, -708, 376, -91
62574, 19, 1469, 208, -14840, -10780, 17850, -696, 370, -94
62575, 98, 1387, 240, -14350, -10080, 17010, -700, 366, -87
62576, 115, 311, 331, -6510, 10360, 15260, -697, 373, -93
62577, 324, 88, 267, 630, 20510, 14910, -705, 364, -88
62578, 388, 211, 203, 8890, 37730, 15400, -709, 366, -94
62579, 412, 503, 177, 16170, 54880, 16590, -709, 366, -93
62580, 281, 820, 188, 19390, 62650, 16660, -703, 360, -94
62581, 95, 1582, 208, 9870, 30100, 12600, -696, 352, -96
62582, 42, 1877, 148, 1190, 8190, 9100, -703, 360, -96
62583, 7, 1820, 167, -6930, -7700, 5530, -705, 358, -90
62584, -50, 1400, 205, -13020, -17640, 1470, -703, 346, -97
62585, -8, 899, 259, -16030, -23520, -1960, -706, 358, -97
62586, 366, 440, 239, -8960, -1050, -3220, -709, 355, -106
62587, 400, 308, 219, -420, 26460, -1260, -706, 354, -102
62588, 313, 285, 289, 8190, 50750, 770, -700, 342, -105
62589, 221, 482, 289, 14350, 64400, 2520, -702, 342, -114
62590, 163, 1438, 206, 16800, 64190, 4270, -699, 349, -106
62591, 21, 1577, 229, 12250, 52290, 3570, -702, 354, -111
62592, -154, 1555, 196, 4900, 29750, 980, -706, 363, -112
62593, -160, 1456, 175, -3220, 3570, -2380, -706, 355, -118
62594, -60, 1361, 160, -9590, -14560, -5390, -705, 355, -121
62595, -15, 723, 239, -14070, -17010, -9100, -699, 358, -111
62596, -5, 449, 325, -11620, -12250, -9870, -702, 355, -118
62597, 220, 469, 310, -5600, 910, -8960, -696, 360, -118
62598, 342, 658, 228, 2940, 28420, -5950, -700, 363, -139
62599, 314, 692, 281, 11200, 56980, -2100, -696, 352, -120
62600, 65, 963, 224, 16100, 69930, 1260, -693, 361, -133
62601, 155, 1377, 201, 13020, 62720, 2030, -702, 363, -127
62602, 176, 1688, 142, 8050, 57330, 3010, -696, 364, -133
62603, 0, 1589, 137, 1610, 51100, 3360, -703, 366, -127
62604, -184, 1138, 231, -11760, 19250, 1610, -697, 361, -142
62605, 27, 1139, 232, -13650, 16660, 2660, -691, 358, -136
62606, 149, 989, 259, -10150, 31220, 5600, -700, 360, -141
62607, 84, 609, 301, -3850, 51030, 8890, -694, 363, -144
62608, 32, 337, 267, 2380, 64120, 11410, -688, 358, -135
62609, 100, 700, 242, 10430, 68810, 16100, -697, 357, -135
62610, 137, 1159, 134, 10150, 66920, 18480, -697, 363, -139
62611, -68, 1249, 106, 5880, 57330, 18620, -688, 364, -142
62612, -440, 1099, 148, -3150, 28770, 16800, -693, 361, -153
62613, -445, 1067, 209, -12950, -30590, 12460, -690, 349, -141
62614, -47, 1149, 228, -16590, -26040, 13230, -691, 346, -136
62615, -95, 677, 313, -10640, -8400, 14420, -688, 348, -160
62616, -85, 127, 347, -3290, 4130, 14980, -693, 343, -150
62617, 76, 822, 283, 3150, 9870, 16310, -693, 351, -153
62618, -17, 1622, 176, 3990, 15330, 18760, -693, 349, -153
62619, -344, 1359, 230, -2240, -2660, 17220, -691, 346, -145
62620, -390, 1258, 147, -10920, -30870, 13510, -696, 342, -145
62621, -299, 1234, 87, -18410, -54250, 10220, -697, 345, -144
62622, -223, 1028, 80, -22540, -62930, 7700, -702, 349, -145
62623, -195, 350, 272, -21210, -63700, 2870, -690, 357, -148
62624, 64, 495, 328, -15960, -56560, 1330, -694, 345, -145
62625, 277, 847, 301, -7630, -37100, 1610, -700, 339, -153
62626, 349, 966, 347, 700, -8400, 2940, -702, 351, -142
62627, 224, 861, 360, 9870, 16170, 3640, -696, 343, -144
62628, 147, 1139, 247, 9590, 14350, 3850, -702, 351, -139
62629, 115, 1274, 116, 7210, 14840, 4690, -705, 352, -156
62630, -81, 1043, 118, 3430, 13090, 4620, -702, 349, -142
62631, -357, 691, 129, -2100, 770, 3150, -703, 342, -142
62632, -128, 964, 172, -10150, -31500, -70, -700, 354, -147
62633, 38, 1146, 233, -9380, -28210, 210, -690, 346, -141
62634, 44, 1051, 366, -5810, -16940, 560, -700, 352, -157
62635, 51, 987, 405, -1260, -7630, 490, -697, 363, -145
62636, 165, 1064, 376, 3500, 1050, 910, -699, 351, -145
62637, 241, 1052, 209, 10640, 29050, 4200, -700, 358, -145
62638, 56, 807, 168, 10850, 35490, 5180, -693, 354, -144
62639, -108, 621, 148, 7840, 28840, 5460, -705, 358, -127
62640, -140, 715, 129, 3990, 16520, 5180, -691, 351, -145
62641, -25, 965, 122, 210, 10500, 6650, -696, 352, -136
62642, -49, 1021, 273, 420, 13230, 7280, -700, 358, -145
62643, -8, 978, 338, 1470, 12670, 7280, -694, 345, -144
62644, 117, 1019, 311, 3990, 14350, 7770, -697, 354, -148
62645, 248, 1022, 238, 7630, 24010, 9030, -705, 345, -138
62646, 40, 555, 174, 10850, 41650, 11410, -697, 340, -145
62647, -119, 618, 136, 7840, 30520, 10640, -709, 346, -153
62648, -115, 767, 93, 3010, 12530, 9310, -690, 342, -151
62649, -57, 705, 139, -560, -910, 7700, -700, 346, -142
62650, -90, 221, 62, -1470, -4620, 6720, -700, 346, -162
62651, 197, -218, 434, 14070, 490, 4410, -697, 331, -153
62652, 341, 270, 208, 30940, 25970, 6440, -705, 346, -154
62653, 1258, 711, 45, 50330, 80780, 9660, -697, 346, -144
62654, 833, 1160, 318, 64750, 135730, 12670, -700, 358, -147
62655, 403, 1872, 311, 48580, 134680, 10360, -699, 357, -147
62656, 250, 2494, 78, 29610, 71960, 6370, -696, 339, -153
62657, -194, 2558, 37, 6160, 16030, 3010, -696, 349, -148
62658, 310, 1930, 197, -9800, -26110, 1050, -690, 348, -148
62659, -214, 1278, -146, -20650, -45920, -1890, -699, 343, -157
62660, -451, 175, 232, -21840, -77980, -7630, -700, 345, -157
62661, 121, 175, 364, -13440, -77280, -7700, -700, 355, -151
62662, 478, 380, 194, 980, -44870, -6510, -699, 351, -159
62663, 826, 270, 210, 17290, 7910, -2870, -691, 355, -157
62664, 482, 226, 249, 29890, 63560, -770, -702, 355, -156
62665, -122, 1302, 19, 32130, 77700, -1750, -700, 358, -154
62666, -179, 2070, -11, 23450, 52220, -3990, -697, 358, -159
62667, -429, 2429, -1, 9170, 18480, -7070, -693, 352, -151
62668, -400, 2556, 40, -7840, -31080, -10290, -694, 357, -148
62669, -375, 2350, 45, -34020, -116620, -17710, -693, 361, -147
62670, -278, 1438, 37, -38430, -136430, -20860, -700, 354, -139
62671, -107, 688, 123, -36820, -132020, -23940, -696, 358, -136
62672, -146, 168, 124, -31290, -119980, -25480, -702, 357, -135
62673, 91, -75, 254, -24500, -104650, -27510, -700, 345, -126
62674, 437, -121, 231, -7700, -77350, -29050, -697, 354, -118
62675, 108, 45, 150, 1120, -56910, -28840, -694, 348, -129
62676, 348, 111, 218, 8330, -34090, -29470, -691, 352, -117
62677, -71, 731, 113, 13440, -13720, -31360, -696, 355, -123
62678, -281, 2013, 98, 13090, 1400, -34650, -699, 361, -118
62679, -1115, 2462, 104, -12460, -33810, -44520, -691, 355, -112
62680, -1335, 1554, 107, -32830, -100170, -49700, -687, 361, -120
62681, -957, 710, 118, -49210, -167930, -52920, -684, 361, -109
62682, -255, 620, -76, -54880, -193340, -53200, -687, 348, -105
62683, 230, 356, 11, -45150, -121030, -46340, -693, 355, -102
62684, -76, -218, 112, -42420, -89810, -43680, -679, 357, -103
62685, -530, -382, 119, -44450, -98630, -44170, -682, 366, -105
62686, -448, -130, 127, -45500, -133490, -46620, -679, 367, -105
62687, 243, 573, 552, -36540, -134540, -52780, -679, 366, -96
62688, 587, 2318, 409, 1890, -24080, -66220, -670, 366, -97
62689, 422, 2456, 238, 16380, 39130, -70420, -678, 367, -100
62690, 582, 1562, 294, 14280, 92260, -71190, -681, 366, -96
62691, -456, 717, 341, 6580, 110250, -69090, -663, 361, -115
62692, 54, 381, 147, -5250, 88620, -69090, -663, 372, -103
62693, -175, 863, -185, -2100, 31290, -64680, -663, 373, -111
62694, 9, 128, 89, 2590, 37310, -60200, -654, 372, -112
62695, 663, -445, 244, 4200, 63140, -57190, -648, 384, -103
62696, 22, -98, 69, 4480, 83090, -54250, -648, 385, -114
62697, -89, 851, -103, 15890, 112910, -45500, -642, 390, -118
62698, 543, 1040, 20, 23030, 139230, -39270, -648, 393, -123
62699, -32, 1708, 131, 23590, 163030, -35140, -642, 385, -135
62700, -340, 2348, 457, 15050, 153370, -34370, -636, 390, -120
62701, -752, 3348, 279, 5670, 109200, -37030, -640, 394, -127
62702, -918, 1823, 49, -5530, 38920, -34510, -625, 393, -120
62703, -238, 415, 191, -9030, 14000, -32900, -636, 382, -124
62704, -660, 270, 77, -13580, -6020, -31990, -625, 385, -121
62705, -34, 651, 70, -16450, -20020, -30730, -624, 390, -126
62706, -375, 833, -36, -14140, -11970, -28770, -616, 381, -135
62707, 163, 397, 149, -2100, 36890, -19320, -621, 382, -139
62708, 154, 197, 207, 1960, 50260, -14140, -621, 384, -135
62709, 156, 313, 120, 6230, 67620, -12040, -618, 387, -121
62710, -152, 555, -61, 9940, 76790, -7070, -618, 376, -136
62711, -276, 171, 89, 14910, 100660, -1680, -619, 381, -133
62712, 98, 109, 238, 16520, 94710, -1050, -627, 382, -127
62713, -107, 485, 110, 21770, 98700, -1120, -613, 378, -123
62714, 362, 851, 106, 32620, 111090, 1190, -610, 379, -130
62715, 127, 1246, 103, 41300, 144270, 2870, -609, 385, -130
62716, -515, 2172, -155, 40390, 187740, -1610, -615, 381, -139
62717, -774, 1950, 153, 25340, 156520, -7980, -606, 387, -127
62718, -625, 2439, -168, 10710, 96180, -15120, -616, 391, -132
62719, -885, 2422, -129, -4340, 17430, -16520, -606, 375, -130
62720, -1058, 1541, -56, -18410, -51730, -17780, -601, 375, -139
62721, -1241, 671, -108, -40600, -193060, -24850, -600, 390, -144
62722, -711, 900, -158, -46760, -244510, -29120, -609, 379, -132
62723, -605, 889, -205, -49840, -256270, -33110, -615, 384, -132
62724, 66, 449, -129, -50750, -258790, -32970, -606, 388, -135
62725, 381, 184, -77, -50610, -213430, -32480, -615, 373, -132
62726, 596, 247, 38, -47880, -179480, -34020, -612, 393, -133
62727, 556, -31, 358, -39480, -154490, -35350, -615, 376, -133
62728, 968, 170, 275, -19740, -109060, -40180, -606, 385, -139
62729, 864, 728, 477, 3080, -61460, -42140, -610, 391, -139
62730, 355, 457, 17, 40250, 101850, -37870, -606, 391, -136
62731, 337, -327, 238, 42770, 149940, -38780, -603, 387, -135
62732, -931, -65, 293, 36750, 161420, -44940, -601, 393, -132
62733, -736, 1142, -70, 35490, 161210, -54530, -598, 388, -139
62734, -1704, 1960, -96, 37730, 158060, -70420, -582, 400, -123
62735, -1291, 1360, 69, 29470, 146510, -76580, -594, 397, -138
62736, -1341, 1465, 14, 13440, 75810, -80780, -582, 393, -133
62737, -1851, 1952, -173, -5670, -3430, -85330, -577, 403, -121
62738, -783, 2023, 20, -20160, -87920, -86450, -567, 391, -133
62739, -228, 860, -28, -35770, -147350, -86170, -565, 391, -130
62740, -502, 629, -37, -41510, -150710, -89040, -565, 403, -126
62741, -15, 801, 94, -46900, -161420, -93590, -564, 400, -138
62742, -606, 1121, 10, -49910, -158970, -99330, -552, 396, -129
62743, -148, 1013, 28, -51100, -163450, -104020, -546, 394, -138
62744, 577, -19, 151, -51100, -126490, -111720, -543, 391, -153
62745, 78, 57, 185, -49770, -92540, -112840, -538, 382, -147
62746, 491, 361, 106, -44240, -80570, -112070, -540, 387, -165
62747, 175, 530, 116, -35350, -42910, -112350, -531, 393, -160
62748, 683, 479, 128, -16800, 54250, -106680, -520, 387, -171
62749, 378, 124, 131, -10570, 94220, -101500, -513, 384, -163
62750, -243, 187, 135, -5600, 142100, -100030, -508, 376, -159
62751, -190, 233, 94, 1960, 169260, -98350, -504, 378, -163
62752, -104, 198, 92, 11410, 200130, -98420, -489, 375, -177
62753, -10, 337, -108, 32970, 247310, -91490, -484, 375, -157
62754, 96, 284, -178, 41790, 272580, -85330, -468, 375, -166
62755, -2, 177, -171, 47600, 301770, -80850, -466, 373, -144
62756, -156, 243, -265, 51450, 313110, -77070, -453, 372, -133
62757, -167, 433, -355, 54250, 320740, -74340, -451, 372, -123
62758, -531, 1167, -475, 58310, 334740, -71470, -447, 367, -118
62759, -1149, 1808, -621, 57610, 342090, -75040, -444, 366, -102
62760, -1793, 2282, -823, 52290, 320320, -84910, -427, 360, -97
62761, -1210, 1756, -616, 44240, 280000, -93310, -432, 354, -85
62762, -686, 822, -367, 34230, 213290, -90300, -415, 348, -75
62763, 75, 558, -237, 37380, 184240, -80150, -415, 357, -70
62764, -275, 990, -656, 41580, 180460, -67970, -414, 343, -57
62765, -11, 1172, -679, 44240, 194950, -59640, -412, 349, -48
62766, -2109, 2383, -1535, 38500, 194250, -63070, -406, 343, -34
62767, -1643, 2040, -1612, 16660, 46830, -93030, -399, 348, -40
62768, -720, 535, -590, 8750, -980, -95480, -400, 333, -45
62769, -777, 191, -483, 3430, -28420, -92750, -390, 333, -49
62770, 9, 553, -530, 1610, -53970, -85400, -388, 333, -54
62771, 230, 576, -519, 1610, -29400, -78050, -378, 328, -49
62772, -922, 560, -831, -3780, -2660, -68460, -372, 325, -70
62773, -1926, 927, -1189, -11620, -54460, -72030, -376, 327, -54
62774, -1369, 866, -861, -20370, -110670, -78330, -370, 324, -67
62775, -923, 770, -782, -26810, -138250, -77770, -367, 318, -76
62776, -227, 610, -627, -32550, -134890, -71260, -378, 319, -75
62777, -821, 407, -948, -36680, -149870, -72380, -366, 319, -85
62778, -1034, 307, -1222, -35630, -121380, -74690, -361, 315, -112
62779, -2, -15, -1105, -27090, -102200, -73570, -357, 309, -111
62780, -880, 124, -1178, -19600, -46060, -75320, -352, 309, -126
62781, -1106, -318, -584, -18760, -38570, -77910, -349, 300, -129
62782, -1109, 61, -527, -20090, -70280, -75110, -346, 307, -130
62783, 182, 36, -246, -17080, -49630, -73430, -339, 303, -145
62784, -881, 65, -574, -10500, -19950, -67830, -340, 298, -144
62785, -624, -417, -359, -2730, 42700, -66500, -331, 300, -133
62786, -249, -556, -432, 13580, 128730, -66640, -334, 288, -136
62787, -993, -208, -749, 20930, 163310, -63490, -316, 294, -118
62788, -527, -176, -514, 26810, 169750, -59780, -316, 282, -120
62789, -1277, -65, -642, 28770, 175210, -59640, -321, 289, -99
62790, -1089, -121, -580, 25340, 132650, -62020, -321, 279, -96
62791, -1049, 39, -569, 24080, 103040, -62790, -322, 286, -88
62792, -1077, 23, -584, 24500, 89250, -65660, -328, 265, -84
62793, -1213, -50, -569, 24990, 61740, -67970, -321, 270, -82
62794, -1123, -89, -405, 24920, 42210, -72380, -313, 262, -85
62795, -876, 160, -263, 25410, -2170, -78750, -300, 258, -82
62796, 509, 291, 1081, 32200, 152040, -43400, -298, 250, -78
62797, -3997, -423, -3760, -85470, 493570, 285110, -309, 258, -46
62798, -2253, 413, -1571, 103250, -505120, 101430, -316, 267, -58
62799, -3283, 630, -2306, -55650, 317730, -47320, -310, 274, -54
62800, -1842, 455, -1320, -24220, 166740, -79450, -313, 261, -61
62801, 2593, 89, 607, 34930, -137340, -47670, -306, 265, -76
62802, -3524, 498, -1336, -20790, 175840, -14630, -310, 259, -61
62803, 1581, 369, 801, 27510, -140280, -36120, -310, 264, -60
62804, 1537, 458, 1683, 17570, -67690, -11620, -303, 262, -69
62805, -3595, 201, -2796, -9520, 6650, -980, -303, 259, -67
62806, 1119, 44, 1309, -2800, 20020, -210, -300, 265, -55
62807, -1276, 295, -736, 7070, -85260, -10500, -303, 267, -64
62808, -1224, 256, -494, -3780, 42560, 5180, -307, 264, -69
62809, -850, 203, -177, 770, 630, -420, -307, 252, -63
62810, -872, 336, -314, 140, -1400, 0, -309, 262, -64
62811, -794, 369, -333, 490, 2940, -280, -304, 261, -57
62812, -1025, 197, -293, 910, -2380, -70, -298, 265, -66
62813, -1069, 232, -326, -560, 4200, 210, -304, 250, -79
62814, -1064, 336, -424, -490, 1610, 70, -298, 250, -72
62815, -811, 221, -205, 70, 3080, 210, -309, 255, -55
62816, -987, 256, -287, 350, -4410, -420, -310, 258, -57
62817, -945, 240, -274, -420, 4480, 350, -298, 256, -61
62818, -1050, 254, -337, 140, 3430, 210, -307, 264, -64
62819, -858, 283, -297, 140, -700, -280, -306, 253, -61
62820, -970, 281, -313, -210, -1260, 0, -300, 255, -69
62821, -890, 256, -290, -210, 840, -70, -303, 247, -61
62822, -911, 215, -276, -210, -1050, -70, -292, 262, -63
62823, -847, 283, -298, 280, -560, -210, -307, 262, -58
62824, -976, 279, -309, 350, 840, -70, -307, 259, -64
62825, -906, 241, -284, -70, 1050, 0, -307, 255, -67
62826, -946, 240, -306, -280, -840, -70, -309, 259, -69
62827, -902, 273, -328, -280, 1050, 70, -300, 256, -66
62828, -955, 286, -310, 70, 700, -140, -310, 253, -60
62829, -904, 244, -274, 0, -140, -140, -301, 264, -61
62830, -941, 250, -316, -140, 420, 140, -304, 247, -63
62831, -911, 238, -293, -140, 910, 70, -303, 256, -76
62832, -937, 277, -299, 70, 490, -140, -295, 256, -66
62833, -905, 270, -304, 70, -350, -210, -309, 255, -63
62834, -964, 223, -288, -280, 560, 70, -309, 262, -60
62835, -892, 258, -310, -210, 140, -70, -310, 253, -52
62836, -907, 265, -297, 140, -70, -70, -307, 259, -72
62837, -924, 254, -288, 70, 70, -140, -306, 255, -54
62838, -948, 253, -313, -140, 420, 0, -307, 259, -69
62839, -911, 237, -296, -140, 350, 70, -312, 256, -58
62840, -909, 274, -310, 0, -280, -70, -304, 259, -66
62841, -904, 277, -296, 70, 350, -140, -300, 258, -66
62842, -945, 244, -300, -210, 840, 70, -298, 264, -58
62843, -916, 242, -299, -70, 70, 0, -309, 261, -61
62844, -915, 265, -308, -140, 280, 70, -301, 255, -60
62845, -898, 278, -300, 70, -70, -210, -303, 264, -64
62846, -941, 246, -297, -70, 280, -70, -298, 261, -66
62847, -918, 247, -305, -140, 280, 0, -295, 258, -60
62848, -920, 256, -300, 0, 210, 70, -303, 264, -66
62849, -894, 281, -307, 70, 140, -70, -303, 255, -61
62850, -920, 267, -294, 140, 0, -210, -303, 258, -75
62851, -930, 236, -292, -140, 210, 0, -304, 256, -67
62852, -917, 264, -311, -140, 210, 70, -301, 258, -73
62853, -902, 266, -294, 0, 140, -70, -309, 253, -63
62854, -909, 281, -307, 70, 0, -210, -304, 262, -69
62855, -931, 251, -293, 0, 210, 0, -304, 256, -57
62856, -924, 249, -299, -70, 420, 70, -301, 255, -63
62857, -899, 276, -308, 0, 0, -70, -303, 253, -61
62858, -915, 268, -297, 70, 140, -70, -301, 264, -64
62859, -921, 265, -305, 70, 70, -210, -301, 259, -63
62860, -922, 257, -305, -70, 140, 0, -304, 261, -70
62861, -906, 264, -300, 0, 210, 0, -306, 261, -67
62862, -909, 274, -304, 0, -70, -140, -304, 252, -66
62863, -921, 262, -301, 70, 280, -140, -303, 255, -58
62864, -930, 253, -301, 0, 140, -70, -306, 252, -67
62865, -909, 264, -301, 0, 0, 0, -303, 253, -58
62866, -908, 272, -304, 0, 140, -140, -303, 261, -66
62867, -919, 263, -298, 0, 70, -210, -307, 258, -61
62868, -928, 256, -304, 0, 210, -70, -304, 256, -64
62869, -927, 249, -298, -70, 140, 0, -303, 259, -63
62870, -912, 267, -299, 70, 140, -70, -292, 252, -61
62871, -913, 270, -304, 140, 210, -140, -306, 261, -64
62872, -929, 252, -297, 70, 210, -70, -313, 253, -63
62873, -924, 257, -307, -70, 210, 0, -306, 262, -57
62874, -908, 272, -306, 0, 70, -70, -307, 246, -63
62875, -916, 263, -297, 70, 70, -70, -304, 261, -63
62876, -923, 263, -305, 0, 140, -140, -309, 256, -63
62877, -927, 249, -297, -70, 350, 0, -295, 259, -55
62878, -916, 261, -306, 0, 210, 0, -298, 262, -70
62879, -911, 270, -304, 70, 70, -140, -303, 265, -63
62880, -924, 258, -300, 0, 210, -140, -306, 252, -69
62881, -924, 257, -303, 0, 140, -70, -306, 261, -70
62882, -921, 256, -300, -70, 350, 0, -306, 256, -64
62883, -911, 267, -303, 0, 70, -140, -304, 255, -69
62884, -920, 262, -302, 0, 140, -140, -300, 256, -64
62885, -925, 256, -301, 0, 280, 0, -306, 259, -63
62886, -922, 257, -301, 0, 210, 0, -309, 253, -61
62887, -914, 264, -304, 0, 210, -70, -310, 253, -67
62888, -918, 264, -303, 70, 210, -70, -298, 259, -70
62889, -924, 255, -300, 0, 140, -70, -306, 256, -63
62890, -921, 259, -303, 0, 280, 0, -313, 258, -61
62891, -916, 260, -299, 0, 210, 0, -306, 267, -64
62892, -911, 267, -304, 70, 140, -70, -304, 262, -66
62893, -921, 260, -303, 0, 210, -70, -307, 252, -63
62894, -924, 255, -299, 0, 280, -70, -303, 258, -61
62895, -916, 263, -303, 70, 210, -70, -309, 267, -67
62896, -915, 262, -299, 0, 140, -70, -298, 256, -67
62897, -915, 267, -304, 0, 140, -70, -303, 259, -51
62898, -922, 260, -304, -70, 210, -70, -313, 258, -66
62899, -918, 258, -299, -70, 140, 0, -304, 256, -57
62900, -914, 265, -302, -70, 140, -70, -306, 259, -54
62901, -917, 262, -300, 70, 210, -70, -315, 259, -61
62902, -923, 257, -301, 0, 280, -70, -303, 255, -75
62903, -919, 261, -302, 0, 140, -70, -304, 253, -63
62904, -916, 262, -301, 70, 140, -70, -303, 255, -64
62905, -916, 264, -302, 70, 70, -140, -301, 259, -61
62906, -920, 260, -301, 0, 140, -140, -301, 262, -61
62907, -919, 260, -302, 0, 210, 0, -298, 246, -82
62908, -915, 262, -301, 0, 140, -70, -295, 261, -67
62909, -915, 264, -303, 0, 140, -140, -304, 264, -54
62910, -919, 261, -300, 0, 140, -70, -307, 265, -66
62911, -920, 260, -301, 0, 210, -70, -301, 253, -58
62912, -916, 263, -303, 0, 210, -70, -298, 255, -67
62913, -917, 261, -301, 0, 140, -70, -301, 262, -67
62914, -917, 264, -302, 0, 210, -140, -304, 259, -64
62915, -921, 259, -299, 0, 140, -70, -312, 265, -63
62916, -918, 261, -301, 0, 140, -70, -301, 255, -67
62917, -915, 264, -303, 0, 70, -70, -304, 255, -78
62918, -919, 261, -300, 0, 140, -70, -298, 264, -63
62919, -919, 261, -302, -70, 140, -70, -306, 258, -66
62920, -921, 259, -301, 0, 210, -70, -300, 253, -72
62921, -917, 262, -301, 0, 140, -70, -306, 258, -66
62922, -917, 263, -303, 0, 140, -70, -304, 264, -66
62923, -920, 259, -301, 0, 140, -70, -300, 252, -67
62924, -920, 260, -301, 0, 140, -70, -295, 267, -75
62925, -917, 263, -302, -70, 140, -70, -301, 258, -60
62926, -917, 262, -301, 0, 140, -70, -310, 249, -75
62927, -918, 261, -301, 0, 140, -70, -306, 258, -64
62928, -920, 260, -301, 0, 210, -70, -300, 256, -70
62929, -918, 260, -301, -70, 140, -70, -303, 258, -75
62930, -917, 262, -301, 0, 210, -140, -303, 262, -72
62931, -919, 262, -301, 0, 210, -70, -309, 259, -67
62932, -920, 260, -301, 0, 210, -70, -303, 259, -66
62933, -919, 261, -302, 0, 210, -70, -306, 252, -73
62934, -918, 261, -301, 0, 210, -70, -304, 262, -61
62935, -918, 261, -300, 0, 210, -70, -313, 259, -64
62936, -918, 262, -301, 0, 140, -70, -304, 265, -61
62937, -920, 260, -301, 70, 140, -70, -304, 270, -66
62938, -917, 262, -303, 0, 140, -70, -304, 258, -67
62939, -917, 262, -302, 0, 140, -70, -304, 252, -67
62940, -920, 260, -301, 0, 140, -70, -303, 261, -69
62941, -919, 262, -303, 0, 140, -70, -300, 255, -64
62942, -919, 261, -301, 0, 210, -70, -312, 259, -61
62943, -918, 263, -302, 70, 210, -70, -304, 259, -61
62944, -918, 262, -302, 0, 140, -70, -300, 265, -67
62945, -919, 260, -302, 0, 140, 0, -306, 261, -64
62946, -918, 262, -303, 0, 70, -70, -300, 262, -60
62947, -918, 261, -301, 0, 140, -70, -306, 265, -63
62948, -918, 262, -302, 0, 210, -70, -303, 253, -58
62949, -919, 261, -301, 0, 210, -140, -309, 259, -66
62950, -919, 261, -301, 0, 210, -70, -306, 258, -66
62951, -918, 262, -302, -70, 210, 0, -309, 259, -63
62952, -918, 261, -302, 0, 210, -70, -310, 255, -66
62953, -919, 261, -301, 0, 140, -70, -304, 261, -67
62954, -918, 261, -302, 0, 140, -70, -301, 258, -67
62955, -919, 261, -302, 0, 210, -70, -303, 255, -61
62956, -918, 261, -301, 0, 210, -70, -307, 261, -69
62957, -918, 261, -302, -70, 140, -70, -304, 262, -67
62958, -918, 261, -301, 0, 210, -70, -300, 259, -76
62959, -918, 261, -302, -70, 280, -70, -294, 261, -61
62960, -917, 261, -303, -70, 210, -70, -306, 264, -55
62961, -919, 260, -301, 0, 140, -70, -306, 256, -60
62962, -918, 261, -302, 70, 140, -70, -304, 262, -64
62963, -918, 261, -302, 0, 210, -70, -309, 265, -66
62964, -918, 260, -301, 0, 210, -140, -300, 244, -69
62965, -918, 262, -302, 0, 210, -70, -316, 259, -63
62966, -919, 261, -301, -70, 210, -70, -309, 261, -66
62967, -919, 261, -301, 0, 210, -70, -300, 261, -64
62968, -919, 262, -303, 0, 140, -70, -304, 253, -67
62969, -918, 261, -301, 0, 140, -70, -313, 258, -64
62970, -918, 261, -301, 0, 140, -70, -309, 253, -60
62971, -919, 261, -302, -70, 140, -70, -304, 256, -72
62972, -917, 260, -301, 70, 210, -70, -304, 255, -58
62973, -918, 261, -302, 0, 210, -70, -294, 262, -67
62974, -918, 261, -302, -70, 210, -70, -292, 249, -63
62975, -919, 261, -302, 0, 210, -70, -300, 255, -66
62976, -919, 261, -302, -70, 210, -70, -306, 261, -67
62977, -918, 262, -301, -70, 210, -70, -300, 261, -67
62978, -918, 261, -301, 0, 140, -70, -297, 252, -64
62979, -918, 261, -302, -70, 140, -70, -304, 256, -64
62980, -919, 261, -301, 0, 140, -70, -307, 253, -63
62981, -918, 261, -301, 0, 140, -70, -306, 253, -69
62982, -917, 262, -302, 70, 140, -70, -301, 252, -67
62983, -917, 260, -300, 0, 140, -70, -306, 265, -54
62984, -919, 261, -301, 0, 140, -70, -303, 258, -67
62985, -920, 261, -302, 0, 280, -70, -297, 258, -54
62986, -917, 261, -301, 70, 140, -70, -304, 247, -63
62987, -920, 262, -303, 0, 140, -70, -306, 265, -63
62988, -919, 261, -301, 70, 140, -70, -306, 252, -54
62989, -918, 260, -301, 0, 140, -70, -301, 258, -63
62990, -918, 261, -300, 0, 140, 0, -297, 259, -60
62991, -917, 261, -302, 0, 140, -70, -303, 256, -61
62992, -917, 261, -302, 0, 210, -70, -300, 255, -66
62993, -919, 261, -302, 0, 210, -70, -303, 265, -66
62994, -918, 261, -302, 0, 140, -70, -298, 259, -73
62995, -918, 262, -301, 70, 140, -140, -301, 270, -52
62996, -919, 261, -302, 0, 140, -70, -300, 258, -66
62997, -918, 261, -301, 0, 140, -70, -306, 258, -58
62998, -918, 261, -301, 70, 280, -70, -309, 259, -78
62999, -918, 261, -303, -70, 140, 0, -292, 258, -61
63000, -919, 261, -302, -70, 140, 0, -298, 256, -61
63001, -919, 261, -302, 0, 210, -70, -307, 252, -55
63002, -918, 260, -301, -70, 140, -70, -295, 250, -69
63003, -918, 261, -301, 0, 210, -70, -294, 255, -60
63004, -918, 261, -301, 0, 140, -70, -307, 259, -70
63005, -918, 260, -301, 0, 210, -70, -300, 256, -57
63006, -918, 261, -302, -70, 140, -70, -313, 252, -54
63007, -919, 261, -301, 0, 140, -70, -306, 259, -64
63008, -919, 261, -302, 0, 140, -70, -304, 259, -67
63009, -919, 260, -301, 0, 210, -70, -310, 255, -64
63010, -918, 261, -301, 0, 210, -70, -292, 258, -66
63011, -918, 262, -300, 0, 140, 0, -297, 268, -67
63012, -918, 261, -302, 0, 210, -70, -303, 258, -69
63013, -919, 261, -302, 70, 140, -70, -309, 258, -73
63014, -918, 261, -302, 0, 140, -70, -304, 255, -64
63015, -919, 261, -303, -70, 210, -70, -303, 255, -58
63016, -918, 261, -301, 0, 210, -70, -310, 255, -61
63017, -918, 261, -302, 0, 70, -140, -310, 261, -58
63018, -918, 261, -302, 0, 140, -70, -300, 256, -61
63019, -918, 261, -301, 0, 210, -70, -304, 255, -58
63020, -918, 261, -302, 0, 210, -70, -306, 258, -60
63021, -919, 262, -302, 0, 210, -70, -294, 261, -67
63022, -918, 261, -302, 0, 210, -70, -304, 259, -76
63023, -918, 261, -301, 0, 140, -70, -301, 255, -66
63024, -918, 261, -301, 0, 140, -70, -306, 261, -66
63025, -919, 261, -302, 0, 210, -70, -309, 252, -69
63026, -918, 261, -302, -70, 210, 0, -304, 253, -73
63027, -918, 261, -302, 70, 140, -70, -300, 253, -60
63028, -918, 261, -302, 0, 140, -70, -307, 252, -66
63029, -918, 261, -301, 0, 210, -70, -300, 256, -61
63030, -918, 261, -301, 0, 210, -70, -307, 255, -51
63031, -918, 261, -302, 0, 210, -70, -306, 261, -61
63032, -919, 261, -302, 0, 140, -70, -312, 261, -78
63033, -918, 261, -302, 0, 140, -70, -307, 261, -61
63034, -918, 261, -301, -70, 210, -70, -304, 256, -58
63035, -918, 261, -300, 0, 210, -70, -300, 259, -58
63036, -919, 261, -301, 0, 140, -70, -298, 267, -72
63037, -917, 262, -302, 0, 210, -70, -306, 256, -63
63038, -918, 261, -302, -70, 140, -70, -292, 258, -66
63039, -919, 261, -302, 0, 140, -70, -307, 255, -64
63040, -918, 261, -301, 0, 140, -70, -301, 258, -70
63041, -919, 261, -302, 0, 210, -70, -304, 250, -63
63042, -918, 261, -302, 0, 70, -70, -298, 259, -70
63043, -919, 261, -301, 0, 140, -70, -306, 253, -58
63044, -918, 261, -301, 0, 140, -70, -307, 252, -67
63045, -919, 261, -302, 0, 140, -70, -300, 264, -64
63046, -918, 261, -302, 0, 140, -70, -309, 258, -67
63047, -918, 262, -301, 0, 140, -70, -307, 258, -66
63048, -919, 261, -302, 70, 210, -70, -303, 253, -67
63049, -918, 261, -302, 0, 210, -70, -310, 250, -57
63050, -917, 261, -302, 0, 210, -70, -306, 264, -61
63051, -918, 260, -303, 0, 210, -70, -301, 259, -72
63052, -918, 261, -302, 0, 140, -70, -303, 252, -64
63053, -919, 260, -302, 0, 140, -70, -297, 258, -58
63054, -919, 261, -302, 70, 140, -70, -310, 258, -61
63055, -918, 261, -301, 0, 210, -70, -300, 261, -67
63056, -919, 261, -301, 0, 140, -70, -307, 265, -64
63057, -918, 261, -302, 0, 210, -70, -300, 262, -66
63058, -918, 261, -302, -70, 140, -70, -306, 258, -66
63059, -918, 261, -302, 0, 140, -70, -300, 255, -63
63060, -918, 261, -301, 0, 210, -70, -297, 255, -52
63061, -919, 260, -302, -70, 210, -70, -306, 259, -69
63062, -918, 261, -303, 0, 210, -70, -301, 262, -54
63063, -919, 261, -302, 70, 140, -70, -301, 250, -69
63064, -918, 261, -301, 0, 140, -70, -301, 253, -64
63065, -918, 261, -301, 0, 210, -140, -304, 258, -57
63066, -918, 261, -302, 0, 210, -70, -304, 253, -64
63067, -918, 261, -302, 0, 210, 0, -303, 261, -70
63068, -918, 261, -302, 70, 280, -70, -303, 250, -64
63069, -919, 262, -303, 0, 210, -70, -300, 270, -55
63070, -918, 261, -301, 0, 210, -70, -303, 264, -69
63071, -918, 261, -302, 0, 140, -70, -306, 250, -73
63072, -918, 261, -302, 0, 140, -70, -306, 250, -69
63073, -919, 261, -302, -70, 140, -140, -309, 261, -69
63074, -918, 261, -303, 0, 140, -70, -300, 259, -78
63075, -918, 261, -301, 0, 210, 0, -303, 256, -64
63076, -918, 260, -301, -70, 140, -70, -307, 250, -63
63077, -918, 262, -301, 0, 140, -70, -310, 258, -66
63078, -919, 262, -302, 0, 210, -70, -298, 256, -75
63079, -918, 262, -302, -70, 210, -70, -312, 247, -66
63080, -919, 262, -302, 0, 140, -70, -303, 249, -64
63081, -919, 262, -301, 70, 210, -70, -301, 256, -66
63082, -918, 260, -302, 70, 140, -70, -295, 252, -69
63083, -918, 260, -301, -70, 140, -70, -304, 265, -66
63084, -917, 261, -302, -70, 140, -70, -301, 256, -72
63085, -918, 261, -303, 0, 210, -70, -297, 255, -61
63086, -918, 262, -302, 0, 210, -70, -306, 255, -61
63087, -918, 261, -302, 0, 140, -70, -303, 258, -61
63088, -919, 261, -302, 0, 140, -70, -298, 258, -60
63089, -918, 260, -302, 0, 140, -70, -303, 255, -61
63090, -918, 261, -302, 0, 210, -70, -300, 256, -67
63091, -918, 261, -302, 0, 210, -70, -304, 256, -54
63092, -918, 261, -302, 0, 140, -70, -297, 261, -66
63093, -918, 261, -301, 0, 210, -70, -304, 262, -64
63094, -919, 262, -302, -70, 140, -70, -304, 252, -58
63095, -918, 261, -302, 0, 210, -70, -294, 262, -60
63096, -918, 261, -302, 0, 140, -70, -306, 259, -60
63097, -918, 261, -301, 0, 210, -70, -310, 267, -54
63098, -918, 261, -302, 0, 140, -70, -310, 252, -72
63099, -919, 261, -301, 70, 210, -70, -300, 261, -54
63100, -918, 261, -303, 0, 140, -70, -307, 256, -61
63101, -919, 261, -302, 70, 140, -70, -306, 261, -57
63102, -911, 255, -299, 0, 210, 0, -309, 247, -63
63103, -921, 262, -301, 70, 350, 0, -306, 253, -61
63104, -927, 271, -305, 0, 280, -70, -304, 255, -73
63105, -917, 264, -302, 0, 210, -70, -297, 258, -57
63106, -914, 258, -303, 0, 140, -70, -300, 252, -72
63107, -923, 260, -301, 0, 0, -70, -310, 265, -57
63108, -910, 261, -296, 0, 70, -70, -307, 250, -66
63109, -914, 261, -299, 0, 210, -70, -297, 255, -61
63110, -922, 261, -303, 70, 280, -70, -307, 258, -63
63111, -920, 261, -304, 0, 70, -70, -309, 259, -54
63112, -919, 263, -301, -70, 140, -70, -295, 262, -64
63113, -918, 262, -302, -70, 140, -70, -309, 255, -64
63114, -914, 259, -299, 0, 140, 0, -306, 258, -60
63115, -919, 261, -300, 0, 280, -70, -300, 250, -64
63116, -918, 262, -304, 0, 210, -70, -307, 258, -72
63117, -917, 261, -302, 0, 140, -70, -295, 265, -66
63118, -919, 262, -302, -70, 70, -70, -301, 256, -64
63119, -918, 260, -301, 70, 140, -70, -301, 247, -69
63120, -917, 260, -301, 0, 210, 0, -309, 249, -64
63121, -918, 262, -302, 70, 210, -70, -295, 259, -63
63122, -917, 262, -303, 0, 210, -70, -309, 253, -64
63123, -919, 262, -303, 0, 140, -70, -306, 261, -58
63124, -919, 261, -302, -70, 140, -70, -301, 255, -61
63125, -918, 261, -301, 0, 140, -70, -307, 261, -64
63126, -919, 261, -302, -70, 140, -70, -303, 256, -67
63127, -918, 262, -302, 0, 140, -70, -300, 268, -57
63128, -919, 262, -302, 0, 140, -70, -298, 255, -73
63129, -918, 261, -302, 0, 140, -70, -303, 256, -61
63130, -918, 260, -301, -70, 140, -70, -307, 264, -61
63131, -918, 261, -300, 0, 210, -70, -304, 255, -55
63132, -918, 262, -301, 0, 210, -70, -304, 271, -75
63133, -918, 262, -304, 0, 210, -70, -298, 255, -60
63134, -919, 262, -303, 0, 210, -70, -315, 255, -60
63135, -918, 261, -301, 70, 140, -140, -300, 255, -58
63136, -918, 260, -301, 0, 210, -70, -301, 259, -64
63137, -918, 261, -301, 0, 140, -70, -297, 256, -67
63138, -919, 261, -302, 0, 140, -140, -304, 258, -69
63139, -918, 261, -303, 0, 210, -70, -303, 264, -61
63140, -918, 262, -302, 0, 140, -140, -301, 265, -70
63141, -918, 261, -301, 0, 140, -140, -309, 255, -55
63142, -918, 261, -302, 0, 210, -70, -309, 259, -64
63143, -918, 260, -302, 0, 140, -70, -303, 258, -61
63144, -918, 261, -302, 0, 140, -70, -309, 264, -64
63145, -919, 262, -302, 0, 140, -70, -307, 256, -63
63146, -918, 261, -302, 0, 70, -70, -295, 253, -63
63147, -918, 261, -301, 0, 140, -70, -301, 253, -66
63148, -918, 261, -301, -70, 210, -70, -306, 259, -67
63149, -918, 262, -301, 0, 210, -70, -309, 249, -69
63150, -919, 262, -302, 70, 210, -70, -307, 256, -55
63151, -918, 262, -302, 0, 140, -70, -304, 267, -58
63152, -918, 261, -302, 0, 70, -70, -301, 262, -63
63153, -918, 261, -302, 0, 210, -70, -309, 261, -58
63154, -918, 261, -301, 0, 210, -70, -307, 261, -66
63155, -918, 260, -302, 0, 140, -70, -309, 246, -61
63156, -919, 262, -302, -70, 140, -70, -300, 264, -66
63157, -918, 261, -301, 0, 140, -70, -301, 253, -72
63158, -918, 261, -301, 0, 210, -140, -310, 262, -61
63159, -917, 261, -302, 0, 210, -70, -307, 262, -60
63160, -918, 262, -301, -70, 210, -70, -307, 265, -61
63161, -917, 262, -301, 0, 210, 0, -300, 246, -67
63162, -918, 261, -300, 0, 210, -70, -307, 262, -63
63163, -918, 261, -302, 0, 210, -70, -304, 261, -64
63164, -918, 261, -302, 0, 210, -70, -301, 264, -57
63165, -918, 261, -302, 0, 140, -70, -306, 261, -60
63166, -917, 261, -302, 0, 140, -70, -300, 261, -60
63167, -918, 261, -302, 70, 140, -70, -307, 264, -72
63168, -919, 261, -302, 0, 210, 0, -301, 261, -61
63169, -918, 261, -302, 0, 140, -70, -306, 253, -64
63170, -919, 261, -302, 0, 140, -70, -306, 259, -66
63171, -918, 261, -303, 70, 140, -70, -312, 249, -55
63172, -918, 261, -301, 0, 140, -70, -301, 255, -61
63173, -919, 261, -301, 0, 210, -70, -301, 264, -61
63174, -919, 261, -301, -70, 210, -70, -306, 253, -60
63175, -918, 261, -302, 0, 140, -70, -304, 259, -66
63176, -918, 261, -302, 0, 140, -70, -306, 253, -73
63177, -918, 261, -301, 70, 210, 0, -303, 262, -61
63178, -918, 261, -301, -70, 210, -70, -303, 253, -67
63179, -919, 261, -301, -70, 210, -70, -306, 255, -58
63180, -919, 261, -302, 0, 140, -140, -306, 253, -61
63181, -919, 262, -302, 0, 70, -70, -304, 265, -55
63182, -917, 260, -301, -70, 140, 0, -298, 249, -70
63183, -918, 262, -302, 70, 140, -70, -298, 264, -64
63184, -916, 261, -300, 0, 140, -70, -301, 255, -79
63185, -916, 261, -299, 0, 210, -70, -303, 255, -64
63186, -923, 261, -305, 0, 210, -70, -306, 259, -66
63187, -918, 262, -303, 0, 140, -70, -312, 253, -58
63188, -916, 264, -300, -70, 140, -70, -306, 253, -69
63189, -920, 262, -301, -70, 70, -70, -303, 258, -52
63190, -915, 259, -299, 0, 140, -70, -297, 255, -63
63191, -919, 262, -302, 0, 210, -70, -313, 265, -66
63192, -920, 263, -304, -70, 210, -70, -306, 252, -66
63193, -920, 260, -304, 0, 140, -70, -307, 262, -64
63194, -919, 261, -303, -70, 70, -70, -306, 258, -66
63195, -915, 261, -299, 0, 210, -70, -300, 262, -60
63196, -918, 260, -301, 0, 210, -70, -306, 252, -67
63197, -920, 261, -302, 70, 210, -70, -303, 256, -58
63198, -919, 262, -303, 70, 210, -70, -303, 258, -61
63199, -918, 263, -303, 0, 140, -140, -307, 262, -63
63200, -919, 259, -300, 0, 210, -70, -310, 252, -64
63201, -918, 260, -301, 0, 210, -70, -304, 256, -58
63202, -918, 261, -302, 0, 210, -70, -303, 261, -55
63203, -918, 261, -303, 70, 140, -70, -310, 255, -67
63204, -919, 262, -302, 70, 210, -70, -297, 255, -70
63205, -918, 261, -301, 0, 140, -70, -292, 247, -69
63206, -918, 261, -300, 0, 140, -70, -304, 258, -67
63207, -918, 261, -300, 70, 210, -70, -306, 250, -58
63208, -918, 261, -301, 70, 210, -70, -301, 252, -70
63209, -919, 261, -302, 0, 140, -70, -303, 258, -67
63210, -919, 261, -303, 0, 140, -70, -301, 253, -66
63211, -918, 262, -301, 0, 140, -70, -312, 267, -63
63212, -919, 260, -301, 0, 140, -70, -303, 258, -72
63213, -919, 261, -302, 70, 210, -70, -310, 267, -60
63214, -918, 261, -302, 0, 210, -70, -304, 252, -63
63215, -919, 261, -303, 0, 210, -70, -301, 258, -67
63216, -918, 261, -302, 0, 140, -70, -291, 255, -69
63217, -918, 261, -302, 0, 210, -70, -303, 256, -72
63218, -918, 261, -303, -70, 210, -70, -303, 259, -66
63219, -918, 261, -300, 0, 140, -70, -307, 255, -61
63220, -918, 261, -301, 0, 140, -70, -306, 267, -64
63221, -918, 261, -301, 0, 210, -70, -313, 261, -58
63222, -918, 261, -302, 0, 140, -70, -306, 255, -58
63223, -918, 261, -301, 0, 140, -70, -310, 258, -67
63224, -918, 261, -301, 0, 210, -70, -309, 259, -63
63225, -918, 261, -301, 0, 210, -70, -301, 253, -63
63226, -918, 261, -302, -70, 140, -140, -307, 262, -60
63227, -918, 262, -301, 0, 210, -70, -300, 264, -63
63228, -918, 261, -301, 0, 70, -70, -306, 252, -63
63229, -918, 261, -302, 0, 140, -70, -303, 255, -55
63230, -918, 261, -301, 0, 140, -70, -309, 253, -61
63231, -918, 261, -301, 0, 140, -70, -303, 262, -61
63232, -919, 261, -302, 0, 210, -70, -304, 253, -67
63233, -918, 261, -302, 0, 140, -70, -306, 261, -64
63234, -919, 261, -301, -70, 70, -70, -303, 262, -70
63235, -918, 261, -300, 0, 140, -70, -298, 253, -60
63236, -918, 261, -301, 0, 210, -70, -307, 277, -70
63237, -918, 261, -302, 70, 210, -70, -298, 256, -67
63238, -918, 261, -302, 70, 140, -70, -301, 268, -64
63239, -918, 262, -302, 70, 140, -70, -306, 259, -69
63240, -919, 261, -302, 70, 140, -70, -300, 262, -66
63241, -918, 261, -302, -70, 210, -70, -300, 253, -64
63242, -918, 261, -302, -70, 140, -70, -304, 255, -63
63243, -919, 262, -301, -70, 140, 0, -303, 262, -79
63244, -919, 261, -303, 0, 140, -70, -303, 265, -67
63245, -918, 261, -302, -70, 140, -70, -306, 258, -54
63246, -919, 260, -301, 0, 140, -70, -306, 259, -64
63247, -918, 262, -302, 0, 140, -70, -300, 264, -58
63248, -919, 261, -302, 0, 210, -70, -306, 262, -57
63249, -918, 260, -301, 0, 140, -70, -310, 261, -61
63250, -919, 261, -301, 0, 140, -70, -304, 258, -61
63251, -918, 260, -303, 70, 70, -70, -301, 258, -61
63252, -919, 260, -301, 70, 210, -70, -295, 264, -66
63253, -918, 261, -302, 0, 140, -140, -309, 265, -78
63254, -918, 261, -301, 0, 140, -70, -312, 256, -63
63255, -919, 262, -302, 0, 140, -70, -306, 256, -58
63256, -919, 262, -302, 0, 210, -70, -292, 265, -70
63257, -918, 261, -302, -70, 210, -70, -300, 258, -58
63258, -918, 261, -302, 0, 210, -70, -307, 256, -72
63259, -919, 261, -302, 70, 210, -70, -309, 252, -64
63260, -918, 261, -303, 0, 210, -70, -310, 256, -64
63261, -918, 262, -302, -70, 210, -70, -298, 259, -69
63262, -918, 261, -302, 0, 210, -70, -303, 261, -69
63263, -918, 261, -301, 70, 140, -70, -306, 249, -61
63264, -918, 261, -302, 0, 210, -70, -307, 255, -66
63265, -918, 261, -302, 70, 210, 0, -309, 256, -67
63266, -918, 261, -302, 0, 210, -70, -298, 259, -61
63267, -918, 261, -301, 0, 210, -70, -307, 256, -64
63268, -918, 261, -302, 0, 140, -70, -307, 267, -66
63269, -918, 261, -302, -70, 140, -70, -307, 255, -66
63270, -919, 261, -301, -70, 140, -70, -316, 264, -64
63271, -919, 261, -301, -70, 140, -70, -295, 268, -67
63272, -919, 261, -302, 70, 140, -70, -310, 262, -63
63273, -918, 261, -302, -70, 210, -70, -303, 264, -67
63274, -918, 260, -302, 0, 70, -70, -312, 259, -63
63275, -918, 261, -302, -70, 140, -70, -304, 255, -60
63276, -918, 261, -302, 0, 210, -70, -303, 261, -64
63277, -918, 261, -302, 0, 140, -70, -295, 261, -61
63278, -918, 261, -302, 0, 140, -70, -301, 256, -67
63279, -919, 260, -302, 0, 210, -70, -304, 261, -57
63280, -919, 260, -303, 0, 210, -70, -304, 252, -67
63281, -918, 262, -302, 0, 210, -70, -300, 259, -60
63282, -918, 261, -301, -70, 140, -70, -304, 252, -55
63283, -918, 261, -301, -70, 210, -70, -307, 258, -61
63284, -918, 261, -302, -70, 140, -70, -304, 249, -69
63285, -918, 262, -302, 0, 210, -70, -300, 253, -61
63286, -918, 261, -302, 0, 70, -70, -304, 256, -70
63287, -918, 261, -301, 0, 140, 0, -292, 264, -69
63288, -918, 261, -302, 0, 140, -70, -297, 259, -70
63289, -919, 261, -302, 0, 140, -70, -307, 258, -66
63290, -918, 260, -302, 0, 140, -70, -297, 256, -64
63291, -919, 261, -301, 0, 140, -70, -306, 256, -70
63292, -918, 261, -302, 0, 210, -70, -301, 253, -55
63293, -918, 261, -301, 0, 210, -70, -306, 262, -66
63294, -918, 261, -301, -70, 210, -70, -297, 261, -66
63295, -919, 260, -301, 0, 140, -70, -303, 259, -64
63296, -919, 261, -301, 0, 140, -70, -301, 258, -66
63297, -918, 262, -302, 0, 140, -70, -307, 259, -61
63298, -918, 261, -301, 0, 280, -70, -312, 255, -61
63299, -917, 261, -302, 0, 140, -70, -298, 259, -64
63300, -919, 261, -302, -70, 140, -70, -300, 258, -67
63301, -918, 261, -301, 70, 210, -70, -297, 256, -64
63302, -918, 261, -301, -70, 140, -140, -303, 253, -72
63303, -918, 262, -302, 0, 140, -70, -295, 256, -64
63304, -918, 261, -301, 0, 210, -70, -313, 253, -66
63305, -919, 261, -303, 0, 210, -70, -297, 250, -79
63306, -917, 261, -303, 70, 210, -70, -300, 252, -64
63307, -918, 261, -303, 0, 140, -70, -298, 259, -78
63308, -918, 260, -302, 0, 140, -140, -304, 247, -69
63309, -918, 261, -301, 0, 210, -140, -303, 258, -58
63310, -918, 261, -302, 0, 140, -70, -304, 259, -67
63311, -918, 261, -302, 70, 210, -70, -307, 258, -60
63312, -918, 261, -302, 0, 140, -70, -310, 255, -64
63313, -918, 261, -302, 70, 140, -70, -307, 265, -67
63314, -918, 262, -303, 0, 140, -70, -297, 265, -63
63315, -918, 261, -303, 0, 210, -70, -313, 258, -67
63316, -918, 261, -301, 0, 140, 0, -297, 264, -58
63317, -919, 261, -302, 0, 210, 0, -304, 259, -63
63318, -918, 261, -302, 0, 210, -70, -300, 252, -64
63319, -919, 261, -302, 0, 140, -70, -307, 262, -63
63320, -918, 261, -302, 0, 210, -70, -301, 249, -66
63321, -917, 261, -301, 0, 210, -70, -310, 264, -64
63322, -918, 261, -302, 0, 140, -70, -298, 246, -60
63323, -919, 260, -302, 0, 140, -70, -301, 259, -64
63324, -918, 261, -302, 0, 140, 0, -301, 256, -64
63325, -918, 261, -302, 0, 140, -140, -303, 252, -61
63326, -917, 261, -303, 0, 140, -70, -304, 259, -61
63327, -917, 261, -301, 0, 140, -70, -309, 259, -58
63328, -919, 262, -302, 0, 140, -70, -298, 255, -57
63329, -919, 261, -303, 0, 140, -70, -300, 262, -55
63330, -918, 261, -302, 70, 210, -140, -309, 259, -69
63331, -919, 262, -302, -70, 140, -70, -313, 258, -64
63332, -918, 261, -300, 0, 140, -70, -300, 256, -64
63333, -918, 261, -302, 0, 140, -70, -300, 256, -69
63334, -919, 261, -302, 70, 140, -70, -304, 253, -63
63335, -918, 262, -302, 0, 140, -70, -306, 267, -64
63336, -919, 261, -301, 0, 210, -70, -309, 256, -76
63337, -919, 261, -300, 70, 140, -70, -312, 271, -64
63338, -918, 261, -301, 0, 140, -70, -294, 261, -60
63339, -918, 261, -301, 70, 140, -70, -303, 250, -70
63340, -917, 261, -302, 0, 140, -70, -291, 258, -61
63341, -918, 261, -303, -70, 140, -70, -304, 256, -69
63342, -919, 261, -303, -70, 140, -70, -301, 261, -66
63343, -918, 261, -302, -70, 140, -70, -313, 261, -64
63344, -919, 261, -302, 0, 140, -140, -312, 261, -63
63345, -919, 261, -302, 0, 140, -70, -304, 258, -57
63346, -919, 261, -303, 70, 140, -70, -298, 259, -61
63347, -915, 262, -302, 0, 210, 0, -309, 265, -69
63348, -914, 258, -292, 140, 630, 0, -301, 261, -72
63349, -915, 267, -308, 0, 140, -70, -301, 252, -72
63350, -914, 264, -303, 70, 350, 0, -306, 264, -66
63351, -931, 257, -301, 70, 210, -70, -307, 261, -64
63352, -913, 263, -302, -70, 0, -70, -306, 252, -73
63353, -916, 266, -308, -70, 140, -70, -301, 253, -54
63354, -918, 259, -299, -70, 70, -70, -300, 261, -58
63355, -912, 266, -305, 0, 140, -70, -309, 256, -63
63356, -919, 260, -302, 0, 350, 0, -303, 262, -66
63357, -925, 257, -300, 0, 280, -70, -315, 264, -55
63358, -917, 264, -305, -70, 140, -70, -306, 271, -69
63359, -921, 258, -299, -70, 140, -70, -303, 256, -61
63360, -917, 260, -299, -70, 70, -70, -313, 262, -73
63361, -915, 265, -305, -70, 140, -70, -304, 252, -69
63362, -920, 260, -302, 70, 140, -70, -306, 270, -66
63363, -911, 259, -299, 0, 210, -70, -303, 252, -69
63364, -916, 262, -296, 140, 490, 0, -306, 265, -58
63365, -920, 262, -301, 0, 560, -70, -298, 258, -73
63366, -916, 262, -306, 70, 350, -70, -304, 259, -70
63367, -925, 262, -307, 0, 140, -70, -300, 256, -73
63368, -915, 265, -299, 0, 140, -70, -313, 256, -57
63369, -920, 264, -305, -70, 140, -70, -304, 261, -69
63370, -921, 259, -305, -70, 70, -70, -312, 268, -73
63371, -919, 262, -304, -140, -140, -70, -309, 259, -76
63372, -918, 261, -301, -140, -140, -140, -307, 253, -57
63373, -919, 259, -300, -70, -140, -70, -304, 250, -61
63374, -917, 260, -301, -70, -70, -140, -301, 258, -64
63375, -918, 262, -301, -70, 0, -70, -312, 258, -69
63376, -919, 261, -302, -70, 0, -70, -309, 256, -61
63377, -917, 260, -302, -140, -70, -70, -303, 256, -69
63378, -916, 260, -301, -70, 0, -70, -306, 265, -63
63379, -915, 259, -298, 0, 70, -70, -304, 255, -72
63380, -918, 260, -300, 70, 140, 0, -301, 261, -60
63381, -920, 261, -304, 0, 210, -70, -300, 265, -60
63382, -921, 263, -305, 0, 70, -70, -298, 256, -67
63383, -918, 262, -302, -70, 0, -70, -300, 255, -67
63384, -915, 260, -300, 0, 0, -70, -309, 256, -61
63385, -919, 261, -301, 0, 70, -70, -310, 262, -58
63386, -916, 262, -303, 0, 140, -70, -307, 265, -66
63387, -919, 262, -303, 0, 140, -70, -306, 261, -60
63388, -920, 262, -305, 0, 140, -70, -301, 255, -66
63389, -918, 261, -303, 70, 0, -70, -301, 258, -60
63390, -918, 262, -302, -70, 0, -70, -304, 261, -69
63391, -916, 261, -300, -70, 140, -70, -307, 261, -70
63392, -919, 261, -302, 70, 70, -70, -306, 256, -63
63393, -919, 262, -303, -70, 140, -70, -294, 265, -61
63394, -919, 262, -302, 0, 140, -70, -303, 256, -72
63395, -916, 261, -300, 70, 140, -70, -303, 265, -60
63396, -917, 260, -300, 70, 280, -70, -304, 252, -69
63397, -916, 259, -299, 70, 350, -70, -304, 259, -67
63398, -917, 260, -300, 140, 420, -70, -298, 261, -63
63399, -919, 262, -303, 70, 490, -70, -297, 262, -60
63400, -920, 263, -305, 0, 210, -70, -300, 262, -66
63401, -920, 262, -303, 0, 70, -70, -304, 265, -64
63402, -918, 261, -301, 0, 210, -70, -303, 261, -63
63403, -917, 260, -301, 0, 70, -70, -304, 259, -52
63404, -917, 261, -301, 0, 210, -70, -301, 259, -66
63405, -919, 262, -302, -70, 280, 0, -307, 258, -58
63406, -919, 262, -302, 0, 280, -70, -303, 255, -57
63407, -918, 262, -302, 0, 210, -70, -307, 258, -66
63408, -918, 261, -302, 0, 280, -70, -307, 252, -64
63409, -918, 261, -301, 0, 350, -70, -309, 258, -61
63410, -918, 261, -303, 0, 350, -70, -300, 256, -57
63411, -919, 261, -304, 70, 350, -70, -301, 258, -63
63412, -919, 262, -305, 0, 280, -70, -301, 250, -69
63413, -919, 262, -304, 0, 210, -70, -307, 264, -58
63414, -917, 260, -299, 0, 210, -70, -304, 256, -66
63415, -918, 261, -301, 0, 280, -70, -306, 261, -64
63416, -918, 262, -303, 0, 280, -70, -301, 256, -67
63417, -918, 261, -304, 70, 280, 0, -303, 259, -58
63418, -920, 261, -303, 0, 210, -70, -300, 261, -67
63419, -917, 262, -302, 0, 210, -70, -315, 258, -63
63420, -917, 261, -301, 0, 280, -70, -312, 259, -66
63421, -917, 262, -301, 70, 280, -70, -301, 261, -57
63422, -917, 262, -303, 70, 280, -70, -309, 261, -69
63423, -919, 262, -303, 70, 210, -70, -301, 262, -52
63424, -918, 262, -303, 0, 210, -70, -306, 264, -70
63425, -918, 261, -303, 0, 140, -70, -301, 256, -61
63426, -919, 260, -301, 0, 210, -70, -309, 253, -70
63427, -917, 261, -303, -70, 210, -70, -306, 258, -63
63428, -919, 261, -302, 0, 210, -70, -297, 259, -64
63429, -919, 262, -302, 0, 210, -70, -306, 261, -58
63430, -919, 262, -302, 0, 140, -70, -300, 262, -67
63431, -918, 260, -301, -70, 140, -70, -304, 255, -58
63432, -919, 260, -303, 0, 140, -70, -313, 262, -54
63433, -918, 261, -301, 0, 210, -70, -303, 259, -70
63434, -920, 260, -301, 0, 210, -70, -295, 258, -67
63435, -921, 264, -306, -70, 140, 0, -301, 258, -76
63436, -924, 265, -308, -70, -70, 0, -306, 256, -55
63437, -923, 261, -304, -280, -770, -70, -300, 255, -67
63438, -924, 261, -303, -210, -910, 0, -303, 256, -70
63439, -926, 264, -306, -350, -1120, -70, -303, 262, -57
63440, -931, 267, -314, -560, -1750, 0, -303, 250, -61
63441, -930, 267, -315, -700, -2520, 0, -306, 253, -58
63442, -930, 254, -298, -840, -3220, 140, -297, 255, -72
63443, -939, 250, -294, -770, -3220, 350, -307, 264, -61
63444, -949, 251, -296, -630, -3220, 700, -298, 261, -76
63445, -981, 247, -303, -700, -3850, 1190, -303, 255, -61
63446, -1022, 239, -319, -910, -5950, 1890, -304, 262, -66
63447, -1025, 257, -336, -1470, -7980, 4340, -298, 264, -58
63448, -1021, 264, -340, -2170, -9310, 5460, -312, 259, -63
63449, -982, 267, -333, -2800, -9800, 6580, -310, 259, -69
63450, -970, 278, -325, -3360, -9240, 7560, -309, 265, -72
63451, -975, 269, -307, -4060, -7770, 9590, -304, 264, -63
63452, -968, 257, -300, -4200, -7280, 10430, -306, 265, -73
63453, -968, 254, -295, -4200, -6860, 11200, -306, 256, -69
63454, -982, 259, -302, -4480, -7280, 11900, -300, 261, -76
63455, -992, 267, -309, -4760, -8540, 12600, -304, 265, -57
63456, -1007, 272, -315, -5460, -10500, 14350, -316, 265, -60
63457, -1017, 276, -317, -5950, -11270, 15540, -309, 261, -75
63458, -1018, 277, -318, -6440, -11970, 16800, -316, 270, -72
63459, -1020, 278, -316, -6930, -12390, 18130, -313, 262, -64
63460, -1016, 278, -313, -7490, -12810, 21070, -307, 262, -79
63461, -1031, 279, -308, -8330, -12880, 22610, -316, 261, -88
63462, -1056, 283, -311, -8890, -13930, 24150, -315, 271, -70
63463, -1084, 293, -320, -9660, -16520, 25620, -321, 268, -75
63464, -1098, 301, -328, -10500, -20300, 27020, -319, 267, -73
63465, -1109, 295, -331, -12390, -28210, 30240, -315, 276, -82
63466, -1106, 289, -323, -13090, -31990, 31990, -322, 279, -78
63467, -1094, 286, -315, -13860, -35560, 33740, -319, 270, -78
63468, -1068, 286, -303, -14490, -38360, 35490, -322, 277, -81
63469, -1058, 295, -290, -14910, -39550, 37310, -313, 276, -96
63470, -1096, 320, -280, -15820, -41860, 41370, -327, 279, -88
