Time [mS], AccX [mg],AccY [mg],AccZ [mg],GyroX [mdps],GyroY [mdps],GyroZ [mdps],MagX [mgauss],MagY [mgauss],MagZ [mgauss]
47260, -103, 989, 91, -980, -3220, 2310, -652, 357, -78
47261, -108, 991, 96, -1260, -1260, 2310, -649, 351, -82
47262, -111, 988, 91, -1540, 70, 2310, -654, 357, -76
47263, -98, 986, 96, -1540, 1470, 2450, -648, 367, -79
47264, -94, 986, 98, -1820, 3640, 2870, -651, 360, -75
47265, -95, 981, 86, -2030, 6790, 4550, -648, 358, -76
47266, -90, 980, 88, -1680, 6020, 5950, -640, 357, -75
47267, -91, 983, 93, -1470, 7070, 6440, -652, 351, -79
47268, -91, 988, 97, -1470, 9590, 5950, -651, 355, -76
47269, -104, 992, 88, -1750, 9660, 5110, -655, 355, -73
47270, -91, 993, 101, -1330, 10920, 3150, -649, 351, -78
47271, -94, 992, 93, -1610, 12880, 3290, -645, 346, -82
47272, -89, 990, 100, -2100, 15470, 3570, -657, 354, -82
47273, -90, 988, 99, -2520, 18970, 3780, -652, 354, -85
47274, -90, 988, 100, -3570, 25410, 4270, -654, 349, -90
47275, -96, 992, 91, -4410, 28490, 4550, -651, 349, -85
47276, -106, 992, 78, -4480, 28070, 4270, -649, 349, -90
47277, -100, 993, 86, -4270, 26600, 3920, -655, 348, -87
47278, -102, 1009, 101, -4340, 28140, 2590, -652, 352, -90
47279, -118, 986, 55, -6160, 25480, 1050, -652, 358, -94
47280, -107, 1000, 88, -5250, 21910, 1260, -648, 352, -90
47281, -111, 996, 84, -5600, 20930, -980, -661, 349, -90
47282, -112, 986, 75, -4970, 18970, -980, -655, 358, -91
47283, -105, 980, 75, -3850, 15470, 140, -648, 354, -96
47284, -108, 983, 70, -1540, 11340, 2310, -645, 355, -91
47285, -122, 990, 56, -420, 5250, 1540, -643, 351, -97
47286, -122, 1000, 62, 1120, -2310, -1330, -655, 348, -96
47287, -117, 1001, 72, 2310, -7350, -4690, -646, 343, -93
47288, -108, 1005, 98, 1400, -6720, -8890, -645, 345, -96
47289, -110, 1000, 95, 70, -4970, -12040, -648, 346, -100
47290, -114, 989, 83, -350, -4760, -14210, -642, 358, -93
47291, -98, 970, 80, 210, -5880, -13720, -655, 342, -90
47292, -98, 967, 76, 1260, -7140, -8960, -646, 352, -91
47293, -117, 984, 69, 2380, -11340, -1330, -639, 352, -81
47294, -129, 989, 59, 2800, -16240, 70, -649, 355, -102
47295, -131, 983, 51, 3850, -23800, -70, -657, 343, -91
47296, -118, 970, 50, 5390, -33180, 560, -648, 358, -85
47297, -99, 979, 79, 7700, -39410, 3360, -640, 354, -75
47298, -58, 989, 130, 5250, -28980, 3640, -646, 354, -85
47299, -46, 1003, 151, 2940, -14420, 4270, -655, 354, -84
47300, -59, 1000, 132, 0, 910, 3150, -643, 360, -84
47301, -72, 991, 113, -1540, 10080, 2940, -648, 363, -93
47302, -93, 986, 96, -2870, 15610, 3920, -657, 351, -81
47303, -103, 986, 84, -2730, 13930, 3710, -649, 355, -97
47304, -106, 988, 86, -2380, 11690, 3360, -660, 352, -87
47305, -112, 990, 88, -2310, 9940, 2940, -649, 351, -84
47306, -117, 991, 87, -2100, 8190, 2590, -649, 346, -84
47307, -122, 987, 82, -980, 3080, 1540, -652, 355, -82
47308, -116, 986, 85, -210, -210, 1120, -654, 348, -90
47309, -119, 986, 83, 210, -2520, 910, -645, 358, -85
47310, -188, 986, 20, 700, -7630, 490, -658, 342, -88
47311, 3, 984, 181, 0, -28560, -280, -649, 355, -91
47312, -112, 992, 91, 910, -15750, 1120, -645, 358, -88
47313, -117, 995, 94, 1120, -17710, 0, -651, 360, -78
47314, -71, 988, 130, 1050, -15680, -140, -639, 351, -81
47315, -73, 988, 127, 350, -420, 980, -651, 357, -87
47316, -100, 985, 100, -490, 1540, 980, -642, 352, -82
47317, -91, 994, 113, -1190, 4130, 1120, -651, 345, -87
47318, -68, 979, 104, -910, 4970, 1260, -648, 354, -88
47319, -69, 985, 111, -980, 8050, 1330, -648, 349, -90
47320, -79, 992, 114, -1610, 10500, 910, -654, 351, -85
47321, -89, 983, 103, -5530, 18340, -2590, -645, 358, -97
47322, -102, 966, 70, -3080, 12180, -2170, -648, 354, -87
47323, -95, 978, 91, -420, 6790, -630, -648, 351, -91
47324, -88, 983, 104, 350, 6370, 0, -649, 352, -88
47325, -98, 988, 98, 630, 6300, 140, -643, 360, -94
47326, -100, 989, 97, 770, 6230, 140, -655, 357, -94
47327, -96, 987, 101, 840, 5810, 140, -652, 355, -88
47328, -103, 988, 94, 770, 5670, 140, -649, 352, -90
47329, -101, 986, 96, 700, 5530, 140, -646, 352, -93
47330, -106, 989, 92, 770, 5180, 140, -652, 357, -102
47331, -109, 990, 87, 770, 4900, 70, -649, 360, -93
47332, -108, 990, 88, 700, 4760, 140, -655, 352, -90
47333, -108, 990, 86, 700, 4550, 210, -648, 348, -87
47334, -108, 991, 86, 700, 4410, 210, -649, 354, -94
47335, -111, 991, 85, 560, 3990, 350, -649, 358, -90
47336, -114, 991, 85, 490, 3640, 420, -655, 367, -91
47337, -111, 991, 85, 490, 3290, 420, -645, 343, -85
47338, -109, 990, 83, 420, 3080, 420, -657, 358, -88
47339, -106, 989, 85, 350, 2940, 560, -658, 352, -90
47340, -103, 989, 87, 280, 3150, 630, -645, 352, -91
47341, -102, 991, 87, 350, 3360, 700, -652, 355, -85
47342, -101, 990, 87, 420, 3780, 840, -651, 351, -90
47343, -99, 991, 87, 350, 4270, 840, -657, 358, -84
47344, -98, 989, 88, 490, 4900, 1050, -648, 357, -85
47345, -99, 988, 89, 560, 5250, 1120, -651, 360, -87
47346, -98, 986, 90, 560, 5460, 1120, -649, 349, -88
47347, -97, 983, 89, 630, 5810, 1190, -655, 348, -96
47348, -95, 983, 91, 700, 6160, 1120, -660, 358, -96
47349, -96, 993, 92, 910, 6650, 1120, -654, 352, -88
47350, -96, 994, 93, 910, 6720, 1050, -649, 352, -84
47351, -93, 991, 94, 910, 6790, 1050, -646, 355, -93
47352, -90, 988, 93, 980, 6930, 1050, -642, 345, -87
47353, -87, 986, 93, 1190, 7700, 910, -652, 345, -88
47354, -97, 986, 87, 1330, 9450, 1120, -646, 358, -88
47355, -90, 987, 96, 1540, 6230, 630, -648, 355, -90
47356, -93, 988, 93, 1400, 8120, 770, -654, 349, -93
47357, -108, 990, 82, 1540, 7000, 630, -648, 351, -102
47358, -110, 988, 82, 1750, 2520, 0, -655, 351, -93
47359, -111, 988, 81, 1890, 630, -280, -649, 345, -94
47360, -111, 990, 80, 2100, -1470, -630, -652, 352, -97
47361, -106, 990, 84, 2030, -2240, -840, -654, 354, -87
47362, -55, 990, 122, 1890, -840, -770, -651, 349, -90
47363, -91, 991, 95, 1540, 5110, 0, -654, 360, -88
47364, -79, 989, 98, 1960, -1960, -1120, -648, 352, -82
47365, -118, 991, 72, 2940, 15960, 840, -645, 351, -84
47366, -91, 989, 84, 2730, -6090, -1890, -654, 352, -87
47367, -98, 990, 87, 1470, 4340, -350, -648, 351, -96
47368, -105, 999, 88, 1750, 4130, -280, -652, 351, -94
47369, -122, 991, 63, 1540, 4200, -140, -649, 348, -96
47370, -85, 988, 86, 1400, 3500, -70, -651, 345, -96
47371, -108, 988, 65, 1540, 3920, -70, -651, 349, -87
47372, -112, 985, 60, 1120, 5180, 350, -643, 355, -87
47373, -103, 988, 73, 1540, 6230, 350, -654, 352, -93
47374, -82, 994, 96, 770, 7070, 630, -646, 349, -88
47375, -105, 995, 82, 630, 9800, 980, -654, 351, -90
47376, -102, 993, 77, 70, 11130, 1260, -645, 352, -91
47377, -108, 992, 74, 350, 7210, 980, -642, 352, -94
47378, -112, 991, 70, 420, 6300, 980, -648, 352, -96
47379, -114, 992, 69, 560, 4690, 840, -654, 351, -90
47380, -109, 992, 74, 560, 3990, 840, -652, 352, -91
47381, -107, 994, 77, 210, 4340, 1120, -642, 351, -90
47382, -101, 996, 84, 140, 6370, 1470, -649, 355, -87
47383, -99, 989, 72, -210, 8680, 1750, -645, 351, -94
47384, -93, 996, 88, -280, 10640, 2030, -652, 357, -82
47385, -96, 990, 80, -280, 11060, 2170, -651, 352, -96
47386, -82, 988, 90, -70, 8540, 1890, -654, 352, -102
47387, -119, 989, 55, 770, 5180, 1540, -652, 352, -91
47388, -111, 990, 68, 1750, 6230, 1540, -661, 357, -88
47389, -62, 987, 104, 1750, 3780, 1260, -657, 354, -81
47390, -87, 988, 89, 1540, 8330, 1680, -654, 354, -91
47391, -92, 989, 90, 1960, 9380, 1260, -657, 349, -102
47392, -90, 988, 86, 1680, 10990, 1470, -651, 358, -91
47393, -89, 988, 84, 1680, 11410, 1330, -655, 357, -90
47394, -96, 989, 81, 1680, 11340, 1260, -655, 357, -85
47395, -94, 989, 83, 1260, 12460, 1400, -646, 346, -87
47396, -94, 990, 80, 1190, 12600, 1470, -636, 351, -100
47397, -93, 988, 79, 1190, 11410, 1260, -639, 352, -94
47398, -94, 986, 79, 1260, 10430, 1050, -655, 349, -96
47399, -94, 987, 78, 1260, 9100, 770, -651, 352, -94
47400, -93, 988, 77, 1330, 6580, 280, -651, 351, -85
47401, -93, 988, 73, 1400, 5320, 0, -646, 345, -97
47402, -90, 989, 75, 1540, 4270, -420, -657, 351, -97
47403, -90, 989, 76, 1610, 3850, -630, -651, 349, -99
47404, -90, 987, 77, 1610, 3710, -700, -657, 354, -90
47405, -103, 987, 65, 1470, 3500, -700, -643, 357, -99
47406, -95, 987, 69, 1540, 2730, -910, -663, 349, -91
47407, -90, 991, 74, 1680, 2030, -1190, -657, 346, -94
47408, -101, 990, 69, 1750, 2100, -1260, -660, 346, -90
47409, -96, 993, 73, 1470, 1960, -1330, -651, 357, -100
47410, -99, 991, 71, 1120, 3290, -980, -652, 358, -91
47411, -107, 991, 66, 1120, 2800, -980, -652, 354, -91
47412, -106, 990, 67, 1190, 2240, -980, -643, 345, -85
47413, -39, 986, 119, 630, 10640, -70, -642, 364, -105
47414, -121, 992, 60, 1540, -350, -1120, -648, 351, -102
47415, -107, 994, 70, 1260, -350, -1120, -648, 352, -90
47416, -110, 992, 68, 980, 1050, -910, -654, 349, -91
47417, -111, 994, 67, 1050, 1050, -770, -651, 360, -88
47418, -103, 992, 71, 840, 1610, -630, -648, 358, -94
47419, -102, 994, 71, 490, 3220, -210, -642, 358, -97
47420, -103, 994, 71, 350, 4410, -70, -651, 363, -91
47421, -111, 993, 64, 280, 3430, -70, -648, 358, -94
47422, -105, 992, 70, 350, 2380, -140, -654, 355, -94
47423, -108, 993, 71, 350, 2800, 70, -649, 358, -99
47424, -108, 993, 69, 490, 1400, 0, -645, 352, -108
47425, -94, 991, 77, 280, 2310, 210, -646, 364, -87
47426, -109, 993, 69, 210, 3850, 420, -649, 355, -87
47427, -104, 993, 71, 140, 3710, 490, -648, 354, -88
47428, -113, 993, 63, -280, 6580, 840, -649, 348, -87
47429, -85, 991, 83, -280, 5110, 770, -645, 349, -96
47430, -104, 993, 66, -140, 4130, 700, -640, 346, -88
47431, -118, 993, 53, -350, 6650, 980, -649, 360, -97
47432, -94, 991, 71, 140, 1750, 420, -657, 357, -88
47433, -107, 990, 57, 70, 2730, 560, -649, 355, -99
47434, -95, 991, 65, 70, 2940, 630, -645, 351, -91
47435, -101, 992, 61, 140, 2660, 560, -651, 354, -93
47436, -99, 989, 61, 210, 1680, 420, -651, 346, -97
47437, -95, 991, 63, 280, 1120, 280, -648, 360, -90
47438, -94, 993, 62, 210, 1470, 280, -655, 354, -87
47439, -99, 991, 61, 280, 1540, 210, -649, 351, -94
47440, -99, 988, 59, 420, 560, 70, -654, 349, -93
47441, -96, 987, 62, 490, -490, -140, -649, 357, -90
47442, -90, 991, 65, 560, -1330, -350, -646, 346, -96
47443, -95, 989, 65, 560, -1260, -350, -649, 361, -97
47444, -98, 988, 65, 630, 980, -210, -637, 343, -91
47445, -94, 988, 65, 490, 980, -280, -645, 357, -91
47446, -82, 990, 73, 560, 420, -490, -649, 349, -100
47447, -98, 985, 65, 630, -350, -630, -649, 351, -94
47448, -100, 997, 69, 840, -280, -700, -658, 354, -94
47449, -98, 987, 66, 770, -420, -770, -645, 357, -93
47450, -103, 991, 61, 630, -1190, -840, -654, 346, -97
47451, -114, 992, 61, 770, 140, -700, -652, 352, -97
47452, -94, 988, 67, 770, -560, -770, -651, 349, -96
47453, -104, 991, 66, 910, -560, -840, -649, 355, -94
47454, -100, 994, 68, 630, 210, -560, -642, 351, -96
47455, -102, 991, 64, 630, -210, -630, -654, 355, -94
47456, -101, 991, 69, 350, 1470, -420, -651, 354, -93
47457, -105, 991, 67, 280, 1190, -350, -646, 349, -91
47458, -108, 991, 68, 350, 910, -350, -655, 364, -93
47459, -105, 992, 70, 210, 700, -280, -649, 342, -96
47460, -105, 994, 69, 0, 1960, -70, -649, 357, -96
47461, -108, 993, 69, 0, 2310, 0, -649, 355, -99
47462, -104, 992, 71, -70, 2310, 140, -649, 364, -87
47463, -103, 993, 73, -210, 2940, 280, -652, 343, -91
47464, -95, 992, 78, -350, 4060, 490, -649, 352, -100
47465, -108, 993, 66, -420, 3360, 560, -645, 357, -82
47466, -103, 989, 67, -490, 3220, 560, -654, 360, -96
47467, -97, 994, 79, -630, 4900, 840, -655, 348, -96
47468, -105, 992, 64, -700, 5670, 980, -645, 352, -93
47469, -129, 993, 45, -420, 1400, 490, -651, 348, -103
47470, -111, 994, 59, -490, 3150, 770, -658, 349, -87
47471, -88, 990, 72, -210, 1820, 560, -651, 358, -97
47472, -111, 992, 57, -280, 2380, 560, -661, 351, -99
47473, -93, 987, 68, -210, 1960, 490, -654, 349, -99
47474, -94, 990, 64, -140, 910, 280, -652, 352, -100
47475, -102, 991, 59, -70, -560, 70, -654, 349, -100
47476, -100, 990, 57, 210, -2240, -140, -649, 354, -100
47477, -101, 990, 58, 350, -3850, -490, -651, 357, -102
47478, -94, 991, 61, 560, -5040, -700, -655, 349, -100
47479, -87, 987, 66, 420, -2870, -630, -643, 349, -103
47480, -95, 987, 60, 490, -2100, -630, -648, 355, -96
47481, -86, 988, 68, 420, -1120, -560, -652, 357, -99
47482, -99, 990, 58, 350, -210, -490, -649, 349, -85
47483, -96, 991, 61, 630, -2520, -910, -655, 349, -108
47484, -105, 990, 58, 490, -560, -770, -636, 354, -97
47485, -97, 988, 64, 770, -3780, -1190, -652, 355, -93
47486, -95, 989, 68, 560, -2170, -980, -645, 364, -99
47487, -97, 990, 66, 420, -840, -910, -646, 352, -91
47488, -108, 991, 59, 490, -910, -840, -649, 360, -93
47489, -96, 991, 69, 490, -910, -840, -645, 349, -105
47490, -98, 995, 69, 560, -1610, -910, -643, 345, -100
47491, -108, 991, 62, 560, -420, -700, -652, 351, -97
47492, -105, 989, 66, 420, -280, -700, -649, 361, -91
47493, -106, 991, 65, 420, -210, -560, -652, 354, -93
47494, -103, 992, 69, 350, 280, -490, -655, 352, -91
47495, -107, 992, 66, 280, 840, -280, -637, 357, -93
47496, -105, 992, 66, 210, 980, -210, -648, 348, -93
47497, -104, 991, 66, 140, 1260, -70, -636, 351, -96
47498, -107, 992, 65, 70, 2730, 140, -655, 358, -96
47499, -101, 994, 68, -70, 3010, 280, -663, 352, -103
47500, -109, 993, 63, -210, 3500, 350, -652, 351, -99
47501, -113, 991, 58, -70, 1750, 210, -648, 360, -102
47502, -103, 990, 65, -280, 1960, 350, -648, 360, -99
47503, -116, 994, 53, -350, 4130, 630, -648, 355, -105
47504, -103, 994, 60, -210, 2170, 490, -639, 354, -85
47505, -110, 993, 58, -70, 1120, 350, -649, 355, -97
47506, -99, 990, 65, -140, 910, 350, -640, 352, -91
47507, -98, 991, 63, -210, 1750, 490, -646, 361, -94
47508, -96, 990, 64, -280, 3500, 700, -652, 343, -97
47509, -112, 992, 51, -70, 1050, 490, -652, 349, -99
47510, -100, 992, 60, -140, 1330, 490, -652, 360, -90
47511, -89, 993, 66, -140, 1680, 490, -648, 351, -99
47512, -98, 988, 56, -280, 3850, 700, -643, 349, -96
47513, -102, 989, 54, -140, 3290, 630, -651, 352, -94
47514, -88, 989, 67, -70, 1190, 350, -639, 357, -97
47515, -108, 991, 51, -140, 3640, 630, -649, 349, -93
47516, -102, 992, 61, 0, 1680, 280, -648, 352, -90
47517, -101, 992, 58, 0, 1750, 280, -649, 354, -103
47518, -101, 992, 58, 70, 910, 140, -646, 348, -102
47519, -100, 991, 60, 140, 280, 70, -649, 349, -99
47520, -100, 989, 62, 70, -70, 0, -654, 357, -94
47521, -102, 991, 60, 210, -770, -70, -655, 352, -100
47522, -100, 990, 61, 280, -1400, -140, -657, 348, -96
47523, -100, 992, 62, 490, -1960, -280, -646, 354, -91
47524, -98, 990, 65, 560, -2170, -350, -648, 352, -90
47525, -96, 989, 67, 700, -1960, -350, -648, 355, -90
47526, -97, 989, 65, 350, 1050, 0, -645, 346, -99
47527, -99, 990, 64, 350, 1330, 70, -658, 357, -103
47528, -105, 991, 61, 420, 1190, 0, -651, 355, -105
47529, -100, 992, 64, 350, 630, -70, -649, 367, -91
47530, -100, 989, 64, 350, 350, -140, -648, 358, -97
47531, -99, 988, 65, 420, 420, -140, -643, 352, -97
47532, -98, 988, 66, 350, 1120, 0, -651, 346, -94
47533, -93, 991, 69, 210, 2100, 140, -654, 349, -97
47534, -111, 994, 56, 210, 2100, 70, -649, 361, -93
47535, -102, 991, 64, 140, 2870, 140, -649, 354, -106
47536, -99, 988, 65, 210, 2380, 140, -649, 348, -97
47537, -99, 989, 64, 210, 2800, 210, -645, 352, -106
47538, -102, 990, 63, 280, 2590, 210, -652, 352, -102
47539, -102, 994, 61, 490, 1890, 140, -651, 358, -100
47540, -101, 991, 63, 420, 1750, 210, -654, 349, -99
47541, -102, 991, 62, 420, 1960, 210, -651, 352, -105
47542, -101, 991, 63, 350, 2450, 280, -642, 358, -97
47543, -102, 993, 61, 280, 2940, 420, -649, 354, -100
47544, -104, 995, 61, 70, 2730, 420, -643, 355, -94
47545, -102, 991, 60, 70, 2730, 420, -654, 358, -85
47546, -102, 989, 60, 0, 2730, 420, -649, 355, -94
47547, -100, 989, 60, 0, 3150, 560, -642, 355, -93
47548, -101, 990, 60, -70, 3570, 630, -651, 352, -97
47549, -103, 993, 58, 0, 3290, 700, -649, 355, -93
47550, -101, 994, 59, 140, 3080, 630, -651, 355, -88
47551, -99, 993, 60, 70, 2940, 700, -643, 358, -99
47552, -98, 989, 59, 140, 3220, 630, -652, 351, -94
47553, -96, 988, 59, 210, 3360, 700, -648, 345, -93
47554, -98, 988, 58, 350, 3360, 700, -646, 358, -105
47555, -100, 990, 58, 420, 3220, 700, -652, 360, -97
47556, -95, 992, 61, 490, 3150, 630, -645, 355, -111
47557, -94, 991, 60, 490, 3640, 700, -648, 355, -102
47558, -88, 990, 60, 490, 4480, 700, -654, 348, -94
47559, -88, 989, 59, 630, 4970, 630, -655, 343, -91
47560, -89, 989, 56, 700, 5040, 630, -649, 352, -94
47561, -88, 990, 59, 770, 5250, 560, -645, 352, -94
47562, -88, 990, 59, 910, 5880, 560, -657, 357, -99
47563, -84, 990, 62, 910, 7700, 630, -652, 358, -97
47564, -80, 990, 65, 910, 9450, 700, -651, 348, -97
47565, -75, 990, 71, 630, 12390, 1050, -643, 355, -102
47566, -77, 992, 72, 70, 15260, 1330, -648, 355, -97
47567, -88, 995, 68, -560, 18480, 1400, -646, 363, -109
47568, -114, 1013, 66, -2940, 19950, 490, -651, 354, -108
47569, -193, 977, -52, 770, -10010, -2800, -640, 351, -103
47570, -16, 985, 126, 770, 16450, 1120, -649, 352, -103
47571, -52, 993, 84, 1750, 2380, -280, -652, 346, -103
47572, -55, 994, 76, 1330, 13020, 910, -645, 364, -103
47573, -63, 993, 59, 1820, 10500, 700, -655, 348, -105
47574, -101, 994, 23, 1960, 15890, 1330, -648, 354, -102
47575, -54, 989, 53, 2380, 18340, 1610, -657, 346, -106
47576, -63, 987, 41, 2940, 19950, 1750, -642, 360, -105
47577, -74, 987, 34, 3780, 27440, 2590, -646, 349, -103
47578, -73, 990, 34, 4200, 29610, 2940, -645, 361, -99
47579, -99, 993, 23, 4340, 31920, 3290, -646, 348, -108
47580, -131, 1001, 22, 4130, 32900, 3570, -657, 360, -99
47581, -161, 1011, 19, 3640, 26810, 3430, -648, 348, -102
47582, -142, 1009, 15, 2030, 23660, 3500, -649, 354, -106
47583, -130, 1004, 10, 1330, 22190, 3710, -642, 346, -108
47584, -107, 996, 17, 980, 21210, 3920, -654, 360, -103
47585, -113, 998, 8, 1050, 21980, 4270, -643, 342, -111
47586, -118, 1001, 6, 910, 22190, 4620, -640, 355, -112
47587, -117, 999, 10, 560, 21280, 4760, -648, 355, -115
47588, -121, 998, 7, 350, 20300, 4830, -648, 363, -109
47589, -114, 998, 9, 70, 19180, 4900, -649, 348, -111
47590, -108, 996, 10, -140, 18410, 4900, -651, 349, -117
47591, -84, 993, 16, -140, 18480, 5180, -655, 354, -115
47592, -61, 988, 19, -70, 19180, 5320, -648, 354, -112
47593, -64, 987, 22, 280, 21490, 5530, -652, 351, -118
47594, -53, 987, 23, 630, 22820, 5670, -645, 354, -111
47595, -42, 985, 18, 2310, 30170, 5950, -645, 349, -117
47596, 25, 970, 29, 3710, 38500, 6440, -651, 348, -115
47597, 0, 975, 31, 4900, 44660, 6790, -643, 355, -115
47598, -14, 979, 33, 5810, 49840, 7140, -646, 346, -112
47599, -29, 986, 32, 6510, 53690, 7210, -639, 351, -127
47600, -33, 983, 20, 7490, 58520, 7140, -648, 352, -117
47601, -38, 981, 28, 8260, 62650, 7140, -654, 354, -129
47602, -105, 996, 21, 8680, 64190, 7000, -640, 337, -118
47603, -120, 998, 25, 8400, 60410, 6440, -640, 342, -129
47604, -120, 990, 27, 8190, 58310, 6160, -652, 346, -129
47605, -136, 985, 41, 7630, 51310, 5390, -643, 346, -123
47606, -136, 1000, 34, 7140, 45850, 4830, -651, 348, -129
47607, -136, 1016, 30, 6300, 41650, 4340, -651, 351, -121
47608, -133, 1023, 31, 5320, 35980, 3850, -649, 355, -132
47609, -137, 1022, 32, 3080, 23800, 2800, -652, 346, -132
47610, -158, 1006, 36, 1890, 17990, 2380, -642, 357, -127
47611, -160, 999, 40, 840, 10640, 1820, -642, 348, -135
47612, -161, 994, 34, 0, 3710, 1190, -646, 342, -135
47613, -149, 985, 35, -700, -2170, 630, -637, 348, -141
47614, -81, 978, 48, -770, -9170, -350, -654, 349, -133
47615, -56, 981, 50, -420, -9870, -700, -646, 346, -133
47616, -31, 979, 58, 70, -9520, -980, -657, 354, -132
47617, -19, 980, 61, 630, -8820, -1190, -637, 346, -136
47618, -11, 981, 64, 1190, -7980, -1540, -648, 351, -123
47619, -20, 989, 59, 1960, -6440, -2240, -646, 352, -133
47620, -33, 987, 55, 2310, -5880, -2660, -645, 337, -136
47621, -38, 983, 58, 2660, -5460, -3080, -648, 348, -133
47622, -46, 980, 56, 3080, -5460, -3430, -637, 352, -121
47623, -51, 978, 55, 3920, -5460, -3920, -640, 357, -117
47624, -58, 978, 53, 4270, -5530, -4200, -639, 355, -129
47625, -65, 980, 48, 4620, -5670, -4410, -642, 349, -127
47626, -65, 981, 47, 4900, -5810, -4690, -652, 346, -123
47627, -62, 986, 48, 5180, -6090, -4970, -640, 348, -129
47628, -57, 989, 45, 5670, -6510, -5600, -636, 346, -132
47629, -55, 987, 48, 5740, -6650, -5880, -642, 351, -121
47630, -55, 986, 50, 5950, -7070, -6160, -640, 354, -117
47631, -56, 985, 45, 6160, -7210, -6440, -658, 349, -120
47632, -58, 983, 43, 6370, -7350, -6650, -646, 345, -117
47633, -63, 986, 38, 7210, -6580, -7070, -645, 349, -127
47634, -92, 988, 15, 7210, -5950, -7070, -642, 355, -121
47635, -60, 959, 54, 7630, -6720, -7350, -642, 361, -124
47636, -94, 981, 12, 7910, -5810, -7560, -649, 352, -121
47637, -49, 977, 17, 8540, -6300, -8050, -645, 354, -127
47638, -65, 1000, 30, 8540, -7210, -8330, -649, 358, -118
47639, -75, 1007, 10, 8190, -7560, -8680, -646, 357, -123
47640, -29, 996, 31, 8260, -8330, -9030, -645, 349, -115
47641, -52, 987, 10, 8680, -6650, -9240, -634, 352, -120
47642, -79, 967, 14, 9590, -5040, -9660, -637, 358, -114
47643, -95, 976, 1, 9870, -5530, -9800, -642, 361, -115
47644, -130, 1023, -21, 9940, -5110, -9590, -634, 354, -115
47645, -184, 1114, -102, 8400, -5320, -8750, -637, 357, -114
47646, -279, 1090, -128, 5250, -11200, -7490, -645, 348, -114
47647, -298, 1073, -175, -3500, -23100, -3920, -642, 352, -105
47648, -304, 967, -157, -5390, -18200, -2100, -643, 348, -106
47649, -183, 860, -29, -4200, -18690, -1610, -634, 349, -109
47650, -240, 896, -88, -1960, -11760, -840, -645, 355, -109
47651, -171, 1027, -108, 700, -3220, 2030, -639, 355, -115
47652, -86, 1014, -13, 770, -2380, 3220, -637, 361, -106
47653, -161, 1038, -55, 0, -1050, 3780, -639, 351, -112
47654, -86, 1022, 16, -1680, -6650, 3500, -640, 348, -115
47655, -101, 1065, -42, -3220, -8400, 3080, -646, 355, -115
47656, -30, 997, 21, -2590, 1050, 2100, -640, 351, -114
47657, -114, 966, 9, -3150, -1540, 1400, -643, 349, -106
47658, -111, 1028, -21, -4620, -3710, 1330, -636, 358, -108
47659, -69, 1033, 10, -5670, -6440, 1890, -651, 361, -112
47660, -167, 999, -19, -6230, -5880, 2730, -639, 354, -115
47661, -262, 967, -56, -6510, -9660, 3500, -646, 364, -105
47662, -149, 1021, -22, -6440, -11480, 3710, -642, 361, -114
47663, -152, 1058, -76, -6230, -8330, 4200, -645, 349, -117
47664, -115, 993, -23, -5950, -5810, 4830, -636, 360, -106
47665, -49, 969, 21, -6020, -210, 6230, -639, 355, -109
47666, -70, 1021, -5, -6020, 2590, 7000, -640, 352, -114
47667, -102, 1022, 37, -6650, 2450, 7280, -639, 351, -115
47668, -197, 1017, 0, -7980, -3570, 6790, -639, 351, -114
47669, -157, 1001, 28, -9450, -10640, 6160, -648, 357, -108
47670, -115, 995, 37, -10640, -14840, 6230, -646, 352, -117
47671, -156, 976, 18, -10570, -18200, 5880, -646, 360, -109
47672, -97, 954, 43, -10220, -18340, 5950, -652, 352, -120
47673, -71, 968, 38, -9590, -17570, 6160, -646, 354, -117
47674, -31, 986, 50, -9030, -14000, 6370, -658, 346, -115
47675, 3, 1001, 55, -7980, -7000, 6160, -651, 348, -121
47676, -1, 998, 54, -7630, -4480, 6020, -646, 361, -118
47677, -4, 998, 55, -7280, -700, 5880, -649, 337, -121
47678, -19, 995, 54, -7070, 1470, 5880, -655, 357, -112
47679, -89, 980, 51, -6650, 3080, 5810, -648, 349, -129
47680, -113, 977, 47, -6510, 2520, 5670, -651, 354, -124
47681, -107, 976, 49, -6230, 490, 5390, -643, 355, -123
47682, -86, 982, 48, -5810, 210, 5110, -651, 352, -112
47683, -64, 982, 50, -5460, -70, 4970, -651, 351, -123
47684, -54, 991, 48, -5180, 1050, 4900, -654, 348, -118
47685, -57, 999, 42, -5320, 1190, 4830, -652, 354, -123
47686, -55, 1000, 43, -5530, 770, 4760, -649, 360, -121
47687, -69, 1000, 34, -5740, 1050, 4760, -651, 348, -126
47688, -77, 995, 34, -5880, 1050, 4760, -661, 346, -124
47689, -89, 993, 31, -5740, 840, 4760, -655, 349, -121
47690, -98, 992, 27, -5530, 1330, 4830, -658, 342, -118
47691, -90, 985, 35, -5390, 1260, 5040, -645, 352, -124
47692, -90, 985, 32, -5320, 1050, 5110, -658, 355, -120
47693, -66, 998, 35, -5320, 1260, 5250, -642, 351, -135
47694, -54, 1004, 41, -5530, 1400, 5250, -651, 354, -127
47695, -67, 1011, 36, -5670, 1540, 5250, -651, 348, -123
47696, -58, 1008, 40, -6090, 1260, 5320, -649, 354, -126
47697, -65, 1007, 32, -6370, 1540, 5390, -645, 349, -124
47698, -75, 996, 32, -6510, 3080, 5670, -651, 340, -123
47699, -80, 989, 38, -6440, 3360, 5810, -652, 346, -126
47700, -92, 981, 36, -6300, 3430, 6020, -660, 354, -130
47701, -87, 980, 40, -6160, 3360, 6160, -645, 343, -132
47702, -81, 985, 39, -6020, 3220, 6300, -657, 348, -135
47703, -73, 1001, 42, -6160, 3010, 6370, -652, 339, -130
47704, -74, 1011, 38, -6580, 2170, 6510, -652, 349, -135
47705, -84, 1019, 29, -7350, 910, 6650, -657, 342, -135
47706, -82, 1020, 25, -8050, 210, 6860, -661, 348, -126
47707, -80, 1004, 26, -8890, 770, 7630, -660, 343, -133
47708, -108, 1014, 1, -9100, 1960, 8190, -658, 346, -132
47709, -94, 1007, 22, -9380, 3150, 8820, -663, 343, -133
47710, -106, 1004, 13, -9660, 3360, 9240, -648, 342, -130
47711, -73, 991, 36, -9730, 4480, 9730, -655, 346, -135
47712, -44, 993, 52, -9800, 6720, 10430, -660, 342, -139
47713, -52, 997, 50, -9940, 7280, 10640, -657, 343, -144
47714, -42, 997, 64, -10080, 7560, 10780, -658, 343, -145
47715, -48, 1006, 62, -10500, 6720, 10780, -654, 337, -142
47716, -52, 1006, 71, -11200, 3500, 10500, -669, 345, -138
47717, -90, 994, 75, -11550, 630, 10150, -654, 337, -148
47718, -91, 989, 75, -11970, -2800, 10010, -658, 340, -136
47719, -86, 983, 72, -12180, -5320, 9940, -660, 342, -157
47720, -69, 986, 67, -12460, -7490, 9870, -660, 343, -145
47721, -16, 1009, 70, -12670, -7070, 10080, -652, 337, -150
47722, 0, 1010, 77, -12530, -5040, 10220, -660, 340, -145
47723, 15, 1001, 80, -12530, -2380, 10500, -660, 337, -153
47724, 26, 993, 84, -12250, 1190, 10780, -663, 345, -148
47725, 11, 993, 78, -12040, 4760, 11200, -661, 337, -145
47726, -41, 976, 80, -12040, 6790, 11620, -660, 336, -154
47727, -77, 971, 80, -12250, 5880, 11760, -667, 334, -159
47728, -85, 982, 85, -12460, 3780, 11830, -654, 340, -162
47729, -86, 993, 84, -12670, 350, 11760, -661, 336, -160
47730, -81, 998, 83, -13020, -3920, 11690, -663, 331, -153
47731, -38, 999, 109, -13090, -5390, 11410, -669, 328, -160
47732, -10, 1008, 123, -13230, -7070, 11200, -667, 337, -162
47733, -2, 1007, 125, -13440, -8120, 11130, -669, 331, -163
47734, 8, 984, 129, -13720, -8330, 11130, -666, 328, -166
47735, 35, 979, 134, -13860, -9100, 10710, -663, 330, -172
47736, 28, 968, 144, -13580, -7420, 10780, -669, 333, -154
47737, 27, 957, 148, -13020, -4760, 10920, -672, 333, -163
47738, 74, 944, 176, -12180, -2030, 10780, -663, 334, -165
47739, 86, 958, 168, -10850, 1260, 10710, -670, 340, -163
47740, 87, 988, 172, -8890, 10360, 10780, -667, 343, -165
47741, 79, 983, 193, -8470, 12670, 10640, -675, 330, -169
47742, 29, 974, 184, -8470, 12040, 10360, -663, 319, -175
47743, -10, 971, 169, -8680, 9520, 10010, -669, 325, -169
47744, -42, 967, 168, -9170, 2380, 8820, -672, 333, -166
47745, 8, 963, 183, -8750, -490, 8050, -667, 333, -177
47746, 71, 980, 203, -8120, -490, 7210, -661, 327, -160
47747, 98, 995, 199, -7350, 840, 6580, -664, 330, -163
47748, 115, 979, 215, -6720, 2380, 6160, -672, 331, -165
47749, 159, 951, 220, -5530, 4340, 4900, -670, 324, -169
47750, 190, 959, 200, -4550, 6580, 4130, -675, 324, -175
47751, 235, 957, 192, -3080, 12810, 3570, -672, 321, -186
47752, 254, 947, 180, -980, 22120, 3290, -661, 325, -172
47753, 267, 920, 197, 1820, 33110, 3220, -670, 333, -171
47754, 234, 865, 196, 8400, 54810, 4410, -675, 321, -177
47755, 156, 878, 151, 11830, 65590, 5180, -670, 324, -181
47756, 206, 914, 176, 14490, 73710, 4970, -676, 324, -178
47757, 213, 972, 139, 16940, 81900, 4340, -672, 325, -184
47758, 277, 989, 147, 20720, 95550, 2800, -667, 324, -192
47759, 56, 961, 163, 21000, 95830, 2310, -663, 327, -193
47760, -9, 978, 138, 20930, 91700, 2170, -669, 324, -192
47761, 10, 1006, 154, 20440, 87360, 1470, -660, 327, -187
47762, 15, 1025, 112, 20300, 82180, 700, -663, 333, -186
47763, -61, 977, 104, 21210, 81690, -490, -667, 328, -193
47764, -64, 954, 122, 21560, 77490, -1400, -657, 322, -187
47765, -112, 967, 97, 21560, 70070, -2310, -651, 330, -193
47766, -163, 972, 109, 21000, 62020, -2940, -657, 325, -199
47767, -178, 976, 126, 20020, 49490, -3780, -657, 321, -199
47768, -230, 1065, 112, 16240, 16870, -6160, -663, 321, -202
47769, -205, 1088, 84, 13230, -350, -7490, -648, 333, -196
47770, -139, 1053, 103, 10570, -13790, -8540, -660, 330, -192
47771, -63, 1012, 86, 8820, -23170, -9450, -654, 333, -195
47772, -68, 978, 33, 7070, -25410, -9170, -663, 324, -189
47773, -52, 985, 66, 6510, -25760, -8680, -663, 331, -189
47774, -66, 1004, 53, 6160, -27300, -8400, -660, 328, -192
47775, -54, 1020, 53, 5670, -28140, -8120, -660, 333, -187
47776, -68, 1034, 27, 5110, -26180, -7630, -658, 321, -195
47777, -33, 1021, 48, 3990, -22960, -6440, -657, 333, -184
47778, -45, 1020, 51, 3080, -22190, -5670, -649, 322, -183
47779, -57, 1011, 25, 1890, -20930, -4690, -658, 336, -175
47780, -57, 1014, 32, 490, -18900, -3710, -657, 343, -187
47781, -86, 1040, 26, -1050, -17990, -2800, -652, 331, -183
47782, -106, 1055, 10, -4270, -18760, -1190, -652, 327, -187
47783, -126, 1050, 21, -5810, -18410, -210, -657, 342, -174
47784, -152, 1048, 26, -7630, -20930, 490, -651, 327, -178
47785, -163, 1044, 34, -9520, -24780, 1330, -654, 333, -184
47786, -213, 1042, 31, -14560, -37590, 2800, -660, 333, -177
47787, -227, 1044, 29, -17710, -46270, 3430, -661, 330, -178
47788, -226, 1047, 26, -20720, -55510, 3990, -661, 322, -174
47789, -217, 1047, 41, -23590, -63980, 4550, -661, 324, -184
47790, -238, 1054, 35, -26250, -73290, 4900, -660, 337, -175
47791, -201, 1048, 44, -31290, -91210, 5460, -660, 321, -178
47792, -178, 1038, 56, -33320, -98420, 5880, -667, 328, -169
47793, -131, 1020, 67, -34930, -104230, 6300, -673, 321, -172
47794, -205, 1014, 70, -36190, -108640, 6790, -663, 327, -171
47795, -100, 979, 104, -37030, -117670, 6440, -670, 324, -175
47796, -80, 985, 93, -37940, -124810, 6300, -676, 340, -165
47797, -30, 991, 111, -38080, -128520, 6090, -676, 324, -171
47798, 18, 975, 130, -37660, -128310, 6020, -675, 327, -162
47799, -15, 954, 139, -37240, -129430, 5950, -676, 328, -163
47800, 148, 913, 165, -34580, -125650, 5530, -690, 324, -159
47801, 163, 909, 178, -31990, -118090, 5460, -684, 325, -162
47802, 145, 916, 176, -29540, -110670, 5250, -684, 324, -147
47803, 214, 926, 203, -27370, -105840, 4410, -684, 327, -157
47804, 268, 946, 205, -25340, -99050, 3640, -688, 324, -153
47805, 326, 949, 219, -20510, -78540, 3220, -691, 319, -154
47806, 327, 943, 223, -18480, -67970, 3150, -684, 321, -142
47807, 311, 950, 215, -16450, -57470, 3010, -693, 319, -153
47808, 299, 947, 210, -14140, -47040, 2730, -691, 318, -133
47809, 268, 928, 210, -11410, -35700, 2520, -688, 318, -150
47810, 222, 899, 215, -6090, -16450, 2240, -687, 310, -148
47811, 258, 904, 211, -3500, -7770, 2240, -679, 316, -160
47812, 266, 927, 194, -1120, 2170, 2520, -693, 319, -147
47813, 236, 942, 194, 980, 11900, 2590, -685, 307, -142
47814, 167, 964, 219, 3150, 18620, 1330, -697, 325, -139
47815, 144, 981, 213, 3360, 17920, 350, -694, 325, -151
47816, 127, 994, 211, 3360, 16660, -770, -691, 324, -135
47817, 93, 987, 213, 3290, 14140, -1820, -684, 310, -148
47818, 61, 966, 219, 3150, 10080, -2870, -691, 325, -147
47819, 22, 957, 204, 2310, -1540, -5040, -684, 318, -156
47820, 11, 958, 192, 2100, -5810, -5740, -675, 322, -151
47821, 3, 954, 191, 1960, -7980, -6020, -687, 324, -153
47822, 8, 956, 195, 1820, -10990, -6440, -690, 327, -145
47823, 17, 989, 174, 1610, -12460, -6020, -682, 319, -157
47824, 159, 1029, 146, 1890, -2660, -4690, -690, 324, -133
47825, 169, 1026, 167, 2800, 9310, -2660, -687, 330, -148
47826, -16, 1008, 162, 3220, 19040, -630, -682, 327, -147
47827, -231, 981, 159, 2030, 13440, 210, -694, 325, -141
47828, -279, 1021, 149, -2310, -9170, 1470, -691, 321, -136
47829, -341, 1058, 127, -5040, -19320, 2380, -681, 319, -150
47830, -356, 1071, 126, -8540, -32970, 3080, -688, 316, -148
47831, -309, 1065, 128, -12040, -46340, 3430, -691, 312, -141
47832, -262, 1069, 151, -15330, -57750, 3500, -687, 330, -139
47833, 54, 1027, 176, -18690, -74340, 2870, -688, 316, -148
47834, 131, 984, 220, -18410, -66990, 3570, -693, 322, -141
47835, 208, 915, 264, -17290, -64750, 3850, -693, 322, -139
47836, 265, 880, 259, -15330, -59360, 3990, -684, 316, -153
47837, 289, 885, 236, -10290, -35280, 5320, -696, 328, -135
47838, 223, 917, 225, -8330, -24920, 5670, -691, 319, -132
47839, 194, 932, 243, -7140, -19320, 5320, -694, 315, -127
47840, 163, 964, 214, -6300, -15820, 5180, -696, 321, -132
47841, 187, 969, 222, -5460, -9870, 5040, -700, 319, -132
47842, 240, 923, 250, -2590, 2380, 4690, -693, 322, -127
47843, 193, 917, 250, -1050, 7140, 4480, -691, 321, -135
47844, 316, 918, 262, 350, 8400, 3640, -693, 315, -145
47845, 249, 947, 213, 1820, 16520, 3850, -705, 312, -142
47846, 254, 943, 244, 3010, 24780, 3500, -697, 316, -135
47847, 214, 941, 237, 5250, 29120, 1540, -694, 321, -135
47848, 184, 950, 220, 6020, 30800, 770, -693, 315, -142
47849, 177, 947, 226, 6720, 34160, 140, -687, 321, -141
47850, 180, 943, 229, 7560, 34090, -560, -699, 315, -133
47851, 162, 936, 242, 9030, 34370, -2170, -693, 327, -136
47852, 83, 965, 202, 9380, 39550, -2520, -699, 310, -133
47853, 150, 973, 247, 9660, 34650, -3430, -682, 324, -135
47854, 53, 979, 203, 9240, 32270, -4200, -694, 313, -132
47855, 42, 965, 202, 8610, 27090, -5040, -688, 322, -145
47856, 116, 959, 206, 7560, 19040, -7070, -681, 309, -129
47857, 183, 988, 233, 8260, 21070, -8120, -684, 322, -141
47858, 119, 994, 183, 8330, 19390, -8750, -687, 318, -133
47859, 142, 945, 243, 8540, 20580, -9660, -685, 324, -144
47860, 69, 943, 198, 8680, 14770, -10990, -682, 315, -135
47861, 113, 947, 181, 9730, 9170, -14140, -691, 325, -138
47862, 169, 919, 225, 10290, 9380, -15820, -687, 316, -144
47863, 135, 929, 204, 10780, 5110, -17640, -679, 321, -138
47864, 209, 929, 241, 11340, 3850, -19320, -678, 313, -135
47865, 131, 963, 203, 12110, 910, -21560, -681, 316, -135
47866, 59, 970, 182, 12460, -980, -22330, -687, 325, -132
47867, 30, 971, 191, 12670, -1120, -23100, -681, 322, -126
47868, 27, 985, 150, 12460, -4130, -23800, -681, 321, -127
47869, 60, 981, 162, 12530, -350, -23800, -681, 325, -135
47870, 55, 962, 164, 12390, 3080, -23240, -679, 321, -136
47871, 28, 970, 134, 12460, 4480, -22820, -684, 327, -117
47872, 74, 976, 158, 13020, 9520, -22190, -682, 327, -132
47873, 26, 999, 137, 13510, 12600, -21630, -670, 336, -126
47874, 0, 994, 150, 14070, 15890, -20930, -675, 319, -127
47875, -111, 981, 128, 13440, 14420, -19600, -678, 331, -121
47876, -153, 989, 107, 12530, 9520, -19320, -679, 339, -126
47877, -99, 988, 136, 11620, 5180, -19670, -679, 336, -120
47878, -142, 1017, 107, 10570, 420, -19810, -676, 343, -127
47879, -99, 1006, 112, 7980, -9030, -19040, -676, 334, -127
47880, -112, 1016, 139, 6860, -12670, -18550, -675, 334, -124
47881, -156, 1041, 107, 5740, -17430, -18270, -667, 334, -114
47882, -159, 1033, 126, 4690, -21350, -18060, -658, 328, -121
47883, -231, 1035, 109, 3150, -28070, -18060, -669, 334, -114
47884, -694, 1100, 135, -3570, -46830, -15400, -661, 336, -117
47885, -727, 1106, -167, -9100, -85960, -10150, -666, 336, -108
47886, -337, 1085, 55, -12880, -66780, -4830, -669, 337, -114
47887, -476, 1202, -14, -14280, -70910, -5600, -666, 337, -115
47888, -53, 1075, 120, -14490, -76020, -6930, -675, 339, -118
47889, 129, 816, 321, -13860, -61810, -2940, -666, 333, -106
47890, 13, 919, 182, -13720, -68460, -1470, -673, 330, -108
47891, 191, 1001, 198, -12530, -59430, 1330, -667, 333, -106
47892, 45, 1035, 149, -10290, -47670, 3360, -675, 336, -109
47893, -240, 977, 136, -8890, -37870, 3850, -679, 333, -100
47894, -106, 1013, 169, -9940, -39410, 3990, -667, 325, -100
47895, -60, 1048, 155, -10710, -37380, 5390, -672, 333, -117
47896, 5, 985, 202, -10850, -33740, 7350, -672, 337, -105
47897, -105, 944, 192, -10710, -28840, 9240, -666, 324, -106
47898, -54, 1011, 192, -8960, -23310, 11480, -669, 337, -108
47899, -16, 1023, 212, -7910, -16520, 12670, -676, 327, -103
47900, -30, 996, 225, -7630, -17220, 13230, -676, 331, -102
47901, -86, 953, 239, -8680, -18830, 13510, -675, 334, -93
47902, -59, 969, 233, -10080, -24500, 13090, -669, 334, -102
47903, -113, 1006, 182, -12250, -33810, 12390, -681, 324, -99
47904, -95, 968, 226, -12740, -37240, 12250, -682, 328, -97
47905, -150, 957, 231, -13230, -41300, 12180, -673, 328, -103
47906, -119, 969, 252, -13930, -49070, 11760, -681, 340, -97
47907, -47, 994, 238, -15680, -60970, 11480, -678, 328, -96
47908, -76, 987, 228, -16380, -64610, 11620, -688, 322, -90
47909, -131, 984, 235, -17500, -69370, 11480, -687, 324, -99
47910, -177, 968, 221, -19180, -80430, 10150, -688, 321, -88
47911, 51, 935, 248, -20090, -88550, 8050, -684, 330, -94
47912, 359, 947, 278, -17570, -75040, 5880, -688, 333, -87
47913, 309, 936, 288, -16170, -67620, 5740, -679, 325, -91
47914, 246, 901, 306, -14910, -64470, 5320, -693, 327, -94
47915, 177, 903, 284, -13650, -62510, 4480, -687, 319, -93
47916, 162, 928, 274, -12180, -56490, 3500, -687, 330, -81
47917, 83, 930, 276, -9660, -45430, 2450, -682, 324, -82
47918, 56, 918, 263, -9660, -46620, 1680, -682, 340, -85
47919, 123, 922, 275, -9870, -46270, 840, -684, 321, -87
47920, 191, 953, 284, -9800, -46900, -210, -687, 327, -78
47921, 192, 944, 295, -8120, -36540, -1190, -693, 322, -82
47922, 142, 933, 315, -7490, -34720, -1820, -693, 327, -81
47923, 122, 940, 310, -7070, -36190, -2730, -688, 330, -78
47924, 140, 956, 287, -6650, -35420, -3500, -679, 331, -81
47925, 116, 948, 272, -6090, -32200, -4060, -690, 331, -88
47926, 104, 898, 292, -5460, -29330, -5390, -684, 318, -75
47927, 155, 907, 291, -5110, -27160, -5880, -681, 322, -79
47928, 214, 926, 290, -4130, -23380, -6020, -682, 333, -73
47929, 214, 946, 292, -2870, -15820, -5880, -675, 324, -79
47930, 209, 944, 305, -1540, -9380, -5740, -684, 325, -64
47931, 127, 958, 313, 70, -2520, -6090, -691, 328, -70
47932, 94, 959, 299, 280, -770, -6230, -690, 327, -70
47933, 82, 950, 290, 420, -350, -6440, -687, 321, -82
47934, 61, 946, 285, 420, 490, -6580, -685, 322, -75
47935, 63, 938, 286, 630, 1260, -6720, -684, 321, -84
47936, 90, 947, 290, 980, 2240, -6720, -688, 324, -73
47937, 117, 963, 288, 1330, 4270, -6580, -684, 327, -75
47938, 138, 974, 288, 1960, 7070, -6440, -684, 327, -81
47939, 130, 970, 292, 2450, 9870, -6440, -682, 328, -75
47940, 147, 962, 276, 3290, 15260, -6790, -679, 330, -78
47941, 139, 941, 276, 3850, 18690, -6720, -684, 331, -72
47942, 98, 920, 259, 4270, 20300, -6650, -679, 327, -69
47943, 72, 913, 268, 4690, 21980, -6650, -678, 325, -82
47944, 30, 925, 267, 4550, 21280, -6860, -673, 330, -78
47945, 39, 987, 270, 4550, 19250, -6790, -684, 328, -73
47946, 55, 997, 275, 4690, 19530, -6510, -682, 339, -82
47947, 67, 977, 275, 4900, 20650, -6300, -678, 325, -93
47948, 69, 943, 266, 4970, 23030, -6090, -685, 333, -81
47949, 131, 954, 262, 5600, 26670, -5880, -681, 333, -82
47950, 138, 933, 259, 6300, 30660, -5670, -681, 336, -79
47951, 143, 912, 264, 7140, 34440, -5530, -681, 334, -82
47952, 145, 910, 263, 8050, 38850, -5460, -685, 330, -73
47953, 172, 956, 270, 9100, 43750, -5250, -684, 336, -75
47954, 136, 947, 256, 11410, 53410, -4620, -672, 336, -87
47955, 109, 940, 255, 12530, 57260, -4200, -681, 334, -78
47956, 83, 938, 245, 13160, 60550, -3920, -669, 327, -90
47957, 83, 940, 247, 13650, 62860, -3500, -673, 339, -88
47958, 56, 956, 228, 13790, 66990, -2520, -678, 331, -87
47959, 61, 1020, 236, 13510, 67340, -2100, -676, 336, -87
47960, 52, 1004, 227, 13230, 67060, -1820, -676, 340, -102
47961, 32, 984, 227, 13160, 68390, -1330, -681, 339, -88
47962, 53, 962, 231, 13440, 69300, -980, -669, 333, -90
47963, 57, 935, 225, 14560, 73080, 70, -676, 333, -100
47964, 2, 982, 213, 14630, 73640, 560, -676, 336, -99
47965, -3, 1002, 225, 13930, 69720, 700, -670, 333, -103
47966, -55, 1010, 210, 12810, 64470, 490, -669, 330, -94
47967, -25, 1027, 213, 11830, 59570, 280, -661, 337, -94
47968, -40, 974, 213, 10220, 53200, 210, -664, 331, -106
47969, -101, 959, 207, 8960, 47810, 0, -675, 331, -96
47970, -53, 991, 218, 7560, 39480, -280, -669, 333, -108
47971, -61, 1021, 200, 6300, 34860, -350, -675, 333, -103
47972, -36, 1007, 209, 4760, 26530, -1050, -667, 327, -100
47973, -65, 966, 218, 3990, 20930, -1540, -666, 342, -102
47974, -64, 977, 202, 3010, 16170, -1960, -661, 331, -102
47975, -16, 999, 204, 2240, 11130, -2240, -673, 331, -109
47976, -33, 999, 202, 1540, 8680, -2520, -670, 328, -105
47977, -31, 968, 209, 630, 3290, -3430, -672, 337, -100
47978, 6, 999, 206, 490, 2520, -3570, -672, 322, -99
47979, -7, 1000, 198, 420, 3500, -3570, -669, 334, -106
47980, -41, 975, 207, 210, 1820, -3640, -669, 330, -102
47981, -69, 971, 211, -420, -490, -3850, -667, 336, -109
47982, -74, 998, 186, -1680, -7000, -4130, -666, 340, -103
47983, -59, 1001, 203, -1960, -8960, -4200, -670, 339, -103
47984, -66, 981, 209, -2240, -10640, -4410, -669, 340, -105
47985, -78, 979, 208, -2660, -13300, -4550, -675, 331, -102
47986, -79, 1006, 190, -3850, -17150, -4550, -664, 333, -111
47987, -98, 978, 193, -4480, -20090, -4690, -661, 330, -100
47988, -119, 976, 212, -5390, -23590, -4830, -664, 333, -108
47989, -102, 988, 200, -6230, -29470, -5250, -667, 345, -102
47990, -129, 1001, 176, -7140, -33180, -5600, -667, 339, -102
47991, -93, 1000, 200, -8260, -39970, -6510, -670, 340, -103
47992, -84, 988, 213, -8610, -43050, -6930, -661, 333, -97
47993, -107, 1004, 190, -9240, -45080, -7070, -654, 334, -100
47994, -91, 1006, 202, -10010, -49770, -7280, -672, 339, -97
47995, -132, 994, 187, -10990, -54390, -7630, -669, 340, -100
47996, -154, 966, 194, -12670, -61950, -8610, -667, 340, -85
47997, -102, 978, 197, -12880, -62720, -8890, -661, 348, -88
47998, -24, 984, 215, -12320, -61880, -8820, -664, 343, -88
47999, -22, 981, 227, -11550, -56140, -8470, -666, 340, -96
48000, -22, 960, 225, -10080, -50960, -7910, -666, 340, -79
48001, -27, 950, 231, -9310, -49700, -7770, -675, 342, -88
48002, -75, 953, 213, -8820, -45710, -7420, -676, 345, -75
48003, -58, 953, 219, -8750, -45010, -7350, -664, 352, -85
48004, -77, 960, 221, -8890, -44310, -7420, -670, 346, -75
48005, -58, 981, 230, -9730, -44940, -7630, -663, 346, -82
48006, -19, 976, 254, -9590, -43750, -7700, -672, 346, -79
48007, 9, 988, 252, -8820, -40460, -7630, -658, 348, -78
48008, 34, 957, 269, -7770, -36330, -7350, -672, 357, -72
48009, 2, 935, 260, -6580, -32060, -7210, -658, 339, -69
48010, -33, 984, 261, -5670, -30590, -7350, -669, 352, -69
48011, -56, 976, 253, -5670, -30450, -7630, -661, 348, -81
48012, -100, 982, 245, -6090, -31920, -7980, -670, 354, -66
48013, -81, 974, 268, -6930, -34440, -8400, -661, 342, -78
48014, -72, 972, 278, -8120, -39130, -8960, -655, 348, -61
48015, -30, 948, 279, -7910, -36750, -8820, -658, 343, -63
48016, -19, 918, 296, -7000, -32970, -8540, -667, 346, -61
48017, 13, 904, 309, -5530, -28210, -8190, -664, 355, -73
48018, 34, 903, 301, -3990, -21630, -7490, -661, 351, -66
48019, 22, 926, 314, -1540, -10570, -6090, -666, 357, -69
48020, -33, 924, 323, -910, -7280, -5530, -655, 342, -60
48021, -38, 928, 332, -560, -5250, -5180, -661, 346, -60
48022, -25, 979, 320, -140, -3430, -4760, -664, 352, -57
48023, -18, 1007, 320, 140, -630, -3990, -648, 348, -61
48024, -48, 970, 352, 420, 1190, -3150, -654, 351, -57
48025, -35, 964, 333, 280, 700, -2870, -663, 340, -58
48026, -37, 968, 318, 210, 1680, -2590, -661, 349, -52
48027, -57, 963, 319, 70, 3220, -2240, -655, 352, -57
48028, -80, 954, 330, -910, 70, -2100, -664, 354, -51
48029, -39, 962, 359, -1190, -2100, -2030, -655, 346, -61
48030, -31, 963, 358, -1050, -1330, -1820, -657, 354, -51
48031, -39, 925, 345, -560, -910, -1680, -661, 355, -57
48032, -86, 882, 361, 0, 910, -1260, -657, 352, -51
48033, -44, 911, 369, 630, -490, -630, -661, 339, -57
48034, -71, 944, 349, 700, -350, -70, -657, 337, -61
48035, -84, 951, 367, 420, -490, 350, -657, 337, -60
48036, -131, 948, 360, -420, -3080, 420, -652, 345, -52
48037, -110, 958, 398, -1260, -6020, 420, -655, 334, -55
48038, -35, 1032, 402, -1750, -9240, 770, -661, 342, -57
48039, -43, 994, 381, -1330, -9240, 1190, -658, 336, -58
48040, -45, 960, 395, -770, -6440, 1540, -652, 345, -48
48041, -62, 948, 360, -700, -8330, 1540, -657, 342, -52
48042, -158, 840, 349, -3080, -14560, 1400, -661, 340, -64
48043, -111, 894, 404, -4130, -16730, 980, -649, 339, -52
48044, 0, 1019, 396, -4270, -22330, 840, -654, 351, -54
48045, -29, 1033, 359, -3290, -15610, 1680, -658, 340, -49
48046, -22, 923, 396, -2170, -12250, 2100, -643, 351, -54
48047, -78, 913, 395, -3010, -17010, 1470, -657, 346, -58
48048, -41, 976, 373, -3290, -20510, 1120, -664, 348, -60
48049, 17, 969, 386, -2940, -18550, 1190, -657, 346, -55
48050, -14, 934, 368, -2520, -16800, 910, -654, 336, -46
48051, -56, 894, 346, -2730, -15750, 490, -658, 348, -42
48052, -30, 921, 369, -4270, -23520, -910, -651, 333, -46
48053, -48, 946, 360, -4830, -24780, -1470, -652, 334, -43
48054, -54, 924, 363, -5110, -24640, -1960, -661, 345, -48
48055, -60, 898, 384, -5530, -25690, -2800, -655, 340, -54
48056, 6, 963, 410, -5880, -31850, -4760, -652, 346, -39
48057, -13, 991, 374, -5460, -29260, -5250, -663, 339, -48
48058, 44, 964, 400, -4760, -25200, -5670, -654, 343, -42
48059, 23, 916, 391, -4130, -25900, -6580, -655, 342, -46
48060, 3, 898, 391, -4340, -25900, -7560, -661, 352, -40
48061, 50, 920, 373, -4620, -25270, -9170, -654, 348, -45
48062, 37, 913, 388, -4130, -23520, -9940, -646, 340, -33
48063, 15, 901, 400, -3640, -18970, -10430, -648, 349, -37
48064, 57, 928, 389, -2940, -18340, -10990, -657, 339, -34
48065, 28, 965, 371, -2240, -14210, -11480, -642, 342, -37
48066, 21, 924, 385, -1540, -7840, -11760, -652, 340, -36
48067, 39, 929, 365, -1820, -8330, -12320, -645, 339, -37
48068, 39, 915, 384, -1820, -5670, -12740, -642, 351, -31
48069, 104, 936, 375, -1260, -1890, -12950, -649, 345, -48
48070, 174, 887, 350, 2590, 14420, -12460, -649, 348, -28
48071, 115, 870, 347, 4130, 23240, -12110, -637, 354, -30
48072, 130, 872, 362, 4970, 27790, -11900, -640, 343, -28
48073, 129, 924, 362, 5530, 29330, -12040, -645, 355, -36
48074, 98, 969, 312, 6230, 33810, -11900, -655, 349, -25
48075, 103, 895, 338, 8680, 44730, -11270, -652, 354, -31
48076, 103, 912, 337, 9450, 45010, -10990, -646, 352, -30
48077, 36, 950, 314, 9240, 45500, -10710, -640, 351, -31
48078, -24, 992, 293, 8470, 43260, -10430, -636, 360, -40
48079, -35, 930, 313, 7630, 35140, -10290, -649, 354, -33
48080, -107, 983, 308, 7490, 32620, -9940, -652, 358, -34
48081, -68, 1097, 304, 6860, 28840, -9730, -651, 366, -30
48082, -128, 1122, 272, 5460, 24920, -9380, -654, 361, -27
48083, -161, 1103, 268, 3290, 19040, -9240, -649, 363, -21
48084, -156, 1060, 295, -1960, 140, -10150, -646, 363, -28
48085, -184, 948, 275, -3570, -3780, -10360, -654, 366, -21
48086, -170, 770, 257, -3640, -4200, -10220, -645, 364, -19
48087, -81, 663, 287, -2380, -1960, -9870, -654, 372, -33
48088, -59, 679, 276, -70, 2310, -9170, -648, 366, -16
48089, 56, 976, 307, 6300, 16450, -7000, -646, 366, -16
48090, 41, 1116, 311, 8330, 23170, -5810, -648, 363, -19
48091, -59, 1242, 307, 8190, 27160, -4970, -654, 363, -9
48092, -98, 1220, 299, 5880, 22190, -4830, -648, 352, -15
48093, -234, 1110, 252, -1260, 3780, -5600, -649, 366, -12
48094, -208, 804, 237, -3430, -700, -5880, -651, 367, -10
48095, -135, 719, 258, -3920, -6020, -6090, -642, 364, -13
48096, -169, 713, 257, -3150, -3500, -5670, -640, 364, -15
48097, -100, 811, 336, -1820, -2590, -5390, -642, 372, -1
48098, 32, 1170, 379, 2940, 2520, -4690, -639, 372, -9
48099, -7, 1219, 321, 5040, 7980, -3920, -645, 367, -13
48100, -107, 1078, 307, 5320, 10500, -3710, -646, 369, -13
48101, -249, 938, 298, 3010, 3640, -4060, -658, 366, -10
48102, -256, 896, 234, -840, -6510, -4830, -645, 364, -13
48103, -173, 915, 249, -7350, -19180, -5600, -663, 370, -10
48104, -163, 908, 307, -8470, -23380, -6090, -658, 369, -4
48105, -155, 889, 311, -8260, -21770, -6300, -651, 369, -12
48106, -90, 929, 367, -6790, -20510, -6440, -646, 372, -1
48107, -71, 963, 322, -1400, -10150, -5740, -649, 372, -6
48108, -162, 874, 355, 210, -8680, -5880, -654, 378, -10
48109, -167, 865, 327, 770, -10920, -6370, -657, 369, -7
48110, -199, 958, 293, 140, -15750, -6650, -657, 378, -9
48111, -173, 979, 293, -1330, -18410, -6580, -655, 378, -1
48112, -243, 951, 294, -5950, -27020, -7070, -663, 378, -10
48113, -216, 993, 361, -8050, -32130, -7770, -646, 384, -9
48114, -127, 1015, 357, -8190, -30660, -7840, -655, 376, 0
48115, -35, 1056, 355, -5740, -22890, -7000, -651, 382, -7
48116, -36, 877, 376, -1820, -9310, -5600, -660, 376, 3
48117, -45, 709, 378, 5250, 5180, -3780, -661, 376, -10
48118, -76, 819, 306, 7350, 11060, -2450, -657, 384, 3
48119, -36, 922, 279, 8960, 17150, -630, -655, 385, -3
48120, -94, 1036, 309, 9030, 21350, 910, -658, 385, 0
48121, -85, 1080, 345, 4550, 18620, 2170, -663, 387, -12
48122, -65, 1133, 306, 2240, 16520, 2870, -663, 387, 0
48123, -23, 1062, 325, 1470, 20090, 3920, -660, 381, -7
48124, 85, 936, 340, 3010, 25340, 4970, -678, 396, -6
48125, 77, 856, 316, 5600, 36120, 6300, -666, 391, -13
48126, 45, 876, 291, 10710, 53270, 8890, -667, 393, -6
48127, 117, 929, 318, 11690, 53620, 9310, -670, 399, -16
48128, 34, 1086, 251, 11200, 52710, 9590, -678, 397, -13
48129, 63, 1153, 248, 9240, 48370, 9730, -681, 400, -12
48130, -143, 1109, 216, 5250, 45430, 9520, -663, 402, -18
48131, -142, 1101, 245, -1680, 16450, 5810, -675, 402, -18
48132, 82, 991, 315, -2100, 14490, 5180, -676, 394, -12
48133, -14, 811, 260, 280, 15610, 4830, -682, 403, -18
48134, 72, 641, 312, 3710, 22330, 4410, -679, 399, -10
48135, -79, 793, 293, 6510, 24360, 3150, -679, 391, -22
48136, -51, 973, 230, 5180, 15750, 2240, -679, 399, -25
48137, -45, 1095, 295, 2310, 11760, 1190, -672, 390, -13
48138, -142, 1138, 254, -980, -1400, -280, -687, 399, -19
48139, -100, 1162, 308, -3850, -4550, -1820, -681, 393, -16
48140, -112, 1002, 294, -5880, -10080, -4340, -684, 382, -19
48141, -86, 865, 291, -5180, -14910, -5460, -679, 390, -28
48142, -119, 821, 310, -4130, -9800, -6020, -685, 384, -16
48143, 19, 763, 335, -2240, -13160, -6790, -693, 394, -28
48144, -121, 811, 237, -420, -5530, -6930, -688, 394, -18
48145, -174, 938, 263, 560, -2380, -7560, -684, 400, -28
48146, -65, 1032, 367, -840, -10850, -8680, -690, 391, -21
48147, -165, 1138, 261, -3010, -15260, -9310, -679, 388, -24
48148, -118, 1127, 323, -4410, -16380, -9660, -678, 388, -33
48149, -158, 841, 315, -4620, -12740, -10500, -685, 393, -40
48150, -147, 721, 278, -3640, -12390, -10850, -688, 397, -25
48151, -132, 770, 297, -2170, -5530, -10500, -687, 399, -37
48152, 26, 708, 356, 70, -1680, -10010, -676, 402, -25
48153, -90, 559, 291, 2940, 6160, -9660, -675, 394, -33
48154, 264, 1327, 396, 7140, 19320, -7980, -690, 403, -25
48155, -5, 1486, 313, 6580, 22330, -7840, -685, 399, -37
48156, -47, 1333, 334, 3920, 17500, -8050, -678, 399, -36
48157, -201, 1256, 318, -210, 14980, -8540, -678, 408, -43
48158, -46, 1114, 290, -3220, 3220, -9800, -687, 399, -36
48159, -122, 649, 272, -5040, 9800, -9590, -682, 394, -45
48160, -101, 507, 285, -3710, 5390, -10220, -682, 403, -39
48161, -86, 576, 287, -1610, 12180, -9940, -687, 403, -46
48162, 74, 797, 302, 1820, 17290, -9030, -687, 405, -52
48163, 235, 1216, 423, 10010, 39690, -6370, -690, 403, -45
48164, 18, 1238, 306, 10990, 47390, -5390, -682, 405, -54
48165, -108, 1134, 305, 9030, 45640, -5250, -685, 409, -64
48166, -216, 1106, 251, 5040, 35630, -5390, -679, 408, -54
48167, -198, 1018, 226, 490, 24080, -5390, -678, 409, -60
48168, -259, 919, 241, -5600, 5320, -5530, -685, 403, -55
48169, -302, 923, 286, -6650, 3010, -4900, -688, 406, -60
48170, -130, 936, 373, -5460, -490, -4550, -681, 406, -61
48171, -219, 934, 295, -3010, 2240, -3640, -685, 409, -61
48172, -165, 865, 368, 280, 10360, -2030, -682, 409, -55
48173, -282, 875, 277, 3360, 11900, 490, -681, 403, -63
48174, -373, 894, 267, 1820, 6230, 1470, -676, 402, -76
48175, -379, 925, 211, -1050, -4130, 2170, -676, 405, -63
48176, -429, 996, 213, -4550, -10220, 3150, -679, 399, -69
48177, -477, 1148, 253, -11130, -25830, 4620, -678, 403, -61
48178, -357, 1196, 389, -13020, -32270, 5110, -679, 396, -61
48179, -344, 1172, 307, -12810, -38780, 5740, -685, 399, -66
48180, -367, 1007, 276, -10710, -31220, 7280, -688, 396, -72
48181, -408, 760, 306, -7630, -25130, 9100, -685, 406, -79
48182, -413, 670, 245, -2520, -21840, 11690, -676, 394, -60
48183, -238, 777, 249, -1400, -20510, 13510, -685, 390, -78
48184, -377, 960, 149, -1190, -18130, 15750, -685, 384, -66
48185, -244, 1092, 294, -2520, -14700, 17500, -691, 396, -73
48186, -350, 1178, 301, -4830, -22470, 19110, -685, 396, -73
48187, -215, 1236, 285, -8470, -21630, 20370, -681, 399, -69
48188, -195, 1050, 269, -8120, -17010, 22330, -687, 385, -76
48189, -352, 823, 301, -7280, -11690, 24150, -684, 387, -78
48190, -262, 792, 322, -5950, -12110, 25130, -690, 390, -75
48191, -224, 698, 351, -3850, -11340, 27020, -696, 391, -81
48192, -234, 863, 352, -2870, -10010, 27580, -694, 390, -81
48193, 112, 1101, 360, -1050, -13300, 27790, -696, 390, -82
48194, -53, 1194, 283, 1260, -3360, 28840, -700, 388, -84
48195, 60, 1251, 343, 3080, 5320, 29960, -699, 394, -85
48196, -144, 926, 308, -980, -1890, 28980, -699, 382, -90
48197, -240, 638, 205, -4550, -10290, 27930, -702, 393, -84
48198, -130, 408, 199, -5530, -15260, 26810, -697, 387, -90
48199, 9, 388, 254, -3360, -13790, 25970, -706, 387, -90
48200, 217, 565, 286, 700, 5040, 24080, -708, 384, -79
48201, 363, 1171, 478, 6370, 13790, 22960, -706, 379, -88
48202, 407, 1407, 391, 7140, 13160, 21000, -712, 388, -88
48203, 321, 1357, 305, 6790, 20930, 20090, -711, 385, -91
48204, 249, 1146, 324, 5390, 24150, 18830, -711, 381, -91
48205, -72, 822, 212, 70, 11410, 15610, -706, 379, -96
48206, -83, 793, 257, -2520, 4760, 14630, -702, 376, -91
48207, -86, 786, 246, -3570, -3080, 13580, -703, 372, -85
48208, -75, 726, 256, -3290, -5880, 12880, -711, 372, -90
48209, -125, 739, 296, -2380, -7210, 11970, -708, 370, -87
48210, -105, 1055, 286, -3290, -19320, 9240, -706, 360, -93
48211, 40, 1276, 407, -3360, -23450, 7980, -715, 366, -91
48212, 131, 1319, 389, -3010, -26460, 6720, -715, 370, -96
48213, -26, 1160, 259, -2730, -21070, 6090, -706, 366, -79
48214, -171, 859, 287, -6020, -24710, 4200, -703, 364, -87
48215, -183, 692, 248, -7630, -38010, 2870, -700, 367, -93
48216, -198, 806, 168, -8400, -36470, 3150, -703, 360, -91
48217, -122, 838, 289, -8120, -32340, 3500, -703, 364, -85
48218, -165, 945, 323, -7490, -31990, 2800, -709, 364, -96
48219, -8, 1274, 414, -6440, -31780, 1890, -703, 361, -85
48220, 81, 1242, 399, -3920, -29960, 2100, -718, 357, -84
48221, -12, 1122, 276, -910, -18900, 2800, -702, 364, -93
48222, -66, 868, 314, 490, -8540, 3290, -708, 360, -88
48223, -19, 765, 332, 560, -10710, 2380, -705, 360, -91
48224, -73, 798, 190, -1960, -13580, 2380, -702, 360, -91
48225, 24, 890, 258, -1680, -10990, 2660, -700, 358, -87
48226, 68, 893, 329, -770, -8750, 2240, -703, 355, -100
48227, -60, 848, 354, 560, -5460, 1610, -697, 361, -97
48228, 35, 976, 310, 5880, -7000, 1470, -699, 355, -96
48229, 186, 1232, 295, 9380, 7140, 2380, -702, 366, -88
48230, 153, 1001, 296, 11270, 17010, 3430, -702, 354, -88
48231, -114, 818, 185, 10010, 20230, 3920, -705, 361, -84
48232, -167, 716, 112, 4270, 6300, 3710, -702, 372, -84
48233, 28, 781, 355, -8610, -22890, 1750, -703, 355, -85
48234, 1, 873, 322, -8190, -24640, 1610, -711, 366, -81
48235, 150, 921, 299, -2520, -4340, 3710, -699, 355, -72
48236, 124, 888, 375, 6160, 19950, 6090, -699, 357, -78
48237, 261, 871, 509, 13580, 32620, 7770, -706, 346, -82
48238, 94, 1024, 233, 19390, 40950, 11690, -702, 360, -79
48239, 4, 1040, 228, 17570, 41160, 13580, -693, 346, -78
48240, -113, 982, 231, 12810, 26040, 14000, -702, 349, -70
48241, -360, 977, 176, 5040, 7490, 13580, -702, 346, -76
48242, -371, 1123, 220, -8610, -31640, 11410, -699, 348, -79
48243, -154, 1184, 306, -9800, -39760, 10780, -693, 345, -82
48244, -172, 955, 350, -8050, -35210, 10780, -703, 343, -70
48245, -127, 798, 393, -4550, -30240, 10570, -696, 345, -78
48246, 2, 749, 343, -140, -26670, 10920, -697, 352, -70
48247, -64, 716, 219, 6510, -7070, 13720, -702, 349, -73
48248, -118, 719, 277, 6090, -5040, 14280, -700, 346, -75
48249, -66, 897, 302, 3570, -15680, 14000, -703, 342, -64
48250, -18, 1163, 252, 1120, -21140, 14140, -705, 343, -66
48251, 25, 1340, 261, 210, -20300, 14350, -699, 343, -67
48252, 56, 1131, 411, -210, -21350, 12530, -699, 334, -70
48253, -9, 1042, 314, -1050, -26390, 10990, -703, 334, -67
48254, 35, 1005, 270, -1190, -26390, 10220, -706, 343, -63
48255, 95, 916, 270, -70, -24010, 9660, -694, 343, -67
48256, 71, 660, 262, 2100, -15400, 7980, -700, 342, -69
48257, 87, 746, 250, 1820, -13090, 7280, -709, 346, -64
48258, 259, 1067, 199, 1960, -8470, 7000, -708, 354, -60
48259, 276, 1101, 264, 2520, 910, 7980, -702, 349, -58
48260, 260, 1030, 331, 2940, 13720, 8540, -705, 346, -54
48261, 354, 1259, 241, 4830, 25480, 8540, -702, 343, -60
48262, 365, 963, 255, 6440, 38920, 10080, -708, 354, -52
48263, 373, 716, 273, 9380, 45920, 10290, -700, 336, -58
48264, 162, 602, 181, 9660, 47180, 10570, -711, 334, -60
48265, 206, 784, 161, 7840, 47950, 10570, -708, 334, -49
48266, 164, 1013, 189, 1540, 26180, 8750, -711, 345, -63
48267, 127, 1041, 258, -1890, 15610, 6930, -708, 336, -57
48268, 101, 1192, 261, -4480, 7910, 4620, -709, 339, -64
48269, 224, 1196, 355, -5320, -770, 2450, -712, 342, -58
48270, 312, 998, 314, -1050, 5110, 0, -715, 333, -57
48271, 206, 766, 226, 1680, 13790, -700, -706, 339, -55
48272, 157, 598, 237, 2940, 15750, -1610, -705, 337, -57
48273, 125, 674, 203, 2800, 12530, -2800, -702, 337, -60
48274, 171, 829, 180, 1400, 8680, -3780, -712, 342, -60
48275, 124, 982, 224, -3220, 8330, -5810, -703, 334, -49
48276, 137, 1036, 276, -5390, 1750, -7980, -711, 340, -61
48277, 214, 1171, 297, -6790, -3780, -9660, -708, 334, -51
48278, 351, 1222, 346, -5740, 1890, -10780, -711, 336, -72
48279, 341, 1123, 318, -2870, 10500, -11340, -712, 334, -67
48280, 153, 617, 275, 1960, 23310, -12600, -717, 345, -63
48281, 120, 571, 244, 3080, 23170, -13440, -705, 339, -55
48282, 153, 592, 250, 4060, 21700, -13510, -706, 337, -61
48283, 170, 591, 251, 6300, 26950, -13160, -708, 345, -57
48284, 254, 927, 301, 11620, 36680, -12530, -712, 352, -61
48285, 377, 1193, 343, 12880, 38990, -12180, -709, 351, -60
48286, 393, 1304, 318, 13160, 42840, -11690, -712, 345, -64
48287, 351, 1275, 253, 12670, 48930, -10920, -712, 357, -72
48288, 213, 1133, 261, 10780, 53200, -10220, -705, 352, -57
48289, 107, 941, 229, 5180, 44590, -9170, -702, 354, -54
48290, 78, 863, 206, 4060, 42350, -7980, -709, 351, -49
48291, 16, 825, 230, 3500, 42280, -6370, -702, 357, -64
48292, 14, 908, 260, 3500, 38430, -5180, -711, 352, -60
48293, -49, 978, 313, 3150, 32830, -4340, -711, 346, -63
48294, 44, 1142, 273, 3430, 24010, -2520, -714, 345, -69
48295, -1, 1143, 259, 3430, 21490, -1540, -705, 346, -69
48296, -107, 982, 310, 1960, 18340, -910, -708, 346, -82
48297, -122, 1051, 292, 70, 6930, -1050, -708, 351, -75
48298, -72, 1032, 188, -2590, -210, 210, -702, 343, -76
48299, -217, 979, 127, -3640, 1400, 1190, -711, 349, -70
48300, -183, 831, 373, -5810, -2450, 1190, -711, 343, -76
48301, -268, 727, 295, -8400, -18900, 70, -715, 348, -76
48302, -225, 687, 241, -8680, -27160, -280, -711, 349, -76
48303, -93, 664, 301, -1750, -15680, 2170, -709, 348, -67
48304, -92, 798, 345, 2800, -10570, 3220, -706, 343, -76
48305, -28, 1098, 324, 4900, -6300, 4410, -714, 363, -84
48306, -16, 1408, 288, 4900, -4760, 5670, -714, 351, -70
48307, 35, 1523, 326, 3010, -2730, 7770, -712, 354, -76
48308, -74, 1251, 222, -3290, -6370, 8330, -708, 348, -73
48309, -193, 958, 192, -7140, -8120, 8680, -705, 361, -78
48310, -159, 774, 225, -9800, -13230, 8680, -717, 354, -79
48311, -157, 714, 196, -11550, -19040, 8470, -714, 352, -78
48312, -202, 731, 246, -11550, -23940, 8050, -720, 354, -81
48313, -91, 908, 342, -9870, -27580, 6930, -724, 366, -84
48314, 45, 1146, 386, -7210, -29260, 5950, -721, 352, -84
48315, 66, 1179, 335, -4620, -26460, 4970, -721, 360, -73
48316, -5, 1006, 311, -3360, -22540, 3570, -715, 358, -66
48317, 37, 924, 236, -6300, -35630, -1610, -715, 358, -70
48318, 119, 977, 224, -8400, -34440, -3990, -723, 354, -73
48319, 126, 901, 207, -9170, -33950, -6370, -720, 348, -69
48320, 176, 848, 238, -8260, -22750, -8190, -724, 357, -66
48321, 255, 900, 299, -5880, 70, -11060, -711, 357, -69
48322, 473, 1021, 335, 1470, 10990, -12110, -715, 345, -66
48323, 520, 1067, 283, 5880, 28980, -12460, -715, 345, -72
48324, 634, 951, 258, 10220, 42070, -12810, -717, 343, -87
48325, 467, 723, 266, 13160, 58660, -13160, -709, 351, -73
48326, 379, 845, 170, 12320, 59080, -15610, -714, 355, -76
48327, 428, 961, 180, 10570, 52990, -17290, -709, 354, -90
48328, 297, 1021, 147, 8260, 49910, -18410, -718, 360, -84
48329, 272, 941, 168, 4970, 48720, -19530, -717, 364, -87
48330, 140, 901, 212, 1610, 38150, -21350, -703, 355, -94
48331, 126, 1165, 287, -4410, 19250, -25550, -720, 351, -85
48332, 194, 1290, 245, -5040, 15190, -27020, -706, 354, -94
48333, 165, 987, 399, -3710, 18690, -28140, -705, 363, -93
48334, 154, 662, 375, -490, 20370, -29540, -700, 366, -91
48335, 270, 411, 276, 12880, 38850, -30100, -703, 364, -96
48336, 298, 461, 181, 18760, 57470, -28700, -699, 367, -97
48337, 149, 691, 177, 20720, 60410, -28000, -712, 366, -100
48338, 148, 1087, 232, 17500, 53270, -28140, -703, 373, -93
48339, 194, 1685, 202, 10990, 36750, -28770, -700, 361, -100
48340, 29, 1564, 272, -2590, 18690, -30100, -699, 369, -93
48341, -89, 1085, 237, -6650, 16870, -30870, -696, 376, -97
48342, -40, 758, 172, -7000, 14420, -31640, -690, 375, -100
48343, -19, 544, 181, -4200, 24080, -30940, -685, 370, -97
48344, -18, 321, 204, 840, 32480, -29190, -687, 361, -97
48345, -105, 653, 166, 9940, 38780, -25830, -688, 367, -106
48346, 31, 1306, 252, 11760, 38710, -23520, -693, 364, -105
48347, 45, 1732, 302, 11620, 38920, -21490, -679, 361, -99
48348, -98, 1716, 292, 9170, 32410, -20860, -676, 361, -103
48349, -203, 1424, 238, -980, 9170, -24430, -676, 366, -102
48350, -68, 854, 123, -4760, -1680, -26810, -682, 372, -99
48351, 3, 755, 97, -6440, -630, -27580, -673, 364, -109
48352, -117, 574, 114, -6790, 7070, -27300, -672, 379, -103
48353, -210, 528, 160, -6650, 10010, -26950, -673, 360, -115
48354, -65, 1271, 315, -4410, 7000, -24990, -675, 370, -103
48355, -17, 1547, 354, -1260, 12390, -23170, -670, 381, -108
48356, -196, 1462, 288, 1260, 19670, -21490, -666, 372, -105
48357, -293, 1090, 314, 1540, 17360, -21280, -675, 369, -103
48358, -350, 876, 256, -840, 8890, -22330, -670, 381, -108
48359, -289, 572, 71, -3780, -630, -22540, -672, 376, -102
48360, -30, 631, 72, -1750, 910, -20790, -663, 388, -109
48361, -255, 625, 77, -1190, 18970, -19040, -672, 385, -120
48362, -202, 517, 272, -3150, 10500, -18830, -666, 387, -106
48363, -348, 755, 235, -6580, -350, -18760, -664, 390, -112
48364, -80, 1876, 132, -3220, 15890, -16520, -669, 387, -100
48365, 479, 1983, 601, 1540, 18550, -14840, -657, 388, -115
48366, -559, 1457, 182, 2170, 36330, -12880, -660, 390, -105
48367, -190, 924, 504, -980, 20020, -13510, -649, 388, -108
48368, -226, 638, 57, -7980, -7490, -12810, -654, 379, -108
48369, -697, 474, -15, -10080, 7140, -9870, -661, 387, -115
48370, -308, 326, 253, -11340, -23800, -9800, -655, 384, -108
48371, -761, 308, 111, -15890, -22470, -9870, -658, 378, -111
48372, -516, 533, 293, -17290, -52430, -12250, -657, 372, -109
48373, -111, 1135, 470, -5880, -48790, -15960, -658, 385, -117
48374, -250, 696, 396, 5600, -19810, -16380, -660, 381, -112
48375, 48, 207, 295, 14910, -9730, -15680, -648, 376, -115
48376, -22, -21, 98, 18690, 14910, -14280, -645, 379, -100
48377, 85, 71, 114, 19320, 1820, -14420, -645, 381, -112
48378, 260, 135, 1, 20440, 4970, -13650, -654, 391, -111
48379, 181, 60, 66, 23660, 27020, -11900, -651, 376, -111
48380, 397, 122, 229, 30800, 35000, -10430, -649, 390, -106
48381, 523, 671, 287, 42490, 67480, -9100, -643, 379, -121
48382, 217, 1686, 199, 70140, 154560, -5250, -655, 385, -108
48383, 265, 2847, -15, 76300, 174510, -4200, -646, 378, -97
48384, 104, 3997, -417, 67900, 169680, -5040, -636, 399, -99
48385, -946, 3997, -865, 32690, 120750, -9940, -651, 399, -102
48386, -1074, 3559, -10, -14630, 16660, -13510, -643, 396, -105
48387, -451, 617, 294, -96390, -258930, -17290, -645, 394, -111
48388, -157, 1020, -627, -93450, -245420, -8890, -649, 402, -120
48389, 1740, 723, -207, -76020, -196140, 560, -643, 399, -127
48390, 488, -15, -232, -58660, -100310, 7490, -643, 387, -111
48391, -1189, -881, 275, -79030, -122220, 3710, -652, 393, -114
48392, -879, -378, 244, -84000, -245910, -3500, -652, 384, -115
48393, 668, 347, 67, -75880, -261100, -3430, -654, 378, -124
48394, 1552, 361, -36, -52710, -226100, -2310, -654, 385, -114
48395, 1855, 21, 186, -19460, -99330, 3710, -651, 384, -115
48396, 709, 6, 287, 27090, 41790, 8540, -654, 381, -117
48397, 31, 115, -111, 32480, 63280, 8820, -651, 379, -117
48398, -164, -178, -73, 31220, 53760, 9450, -654, 381, -111
48399, -255, -198, 218, 25060, 51730, 8050, -652, 379, -111
48400, -205, 181, -77, 22400, 11200, 4760, -651, 376, -112
48401, 394, 759, -170, 30590, 47390, 2870, -658, 379, -108
48402, -739, 2219, 994, 33320, 168210, -12530, -648, 379, -102
48403, -3997, 3548, 309, 23380, 281540, -31500, -648, 379, -115
48404, -2992, 3242, 525, 23100, 102690, -78330, -646, 388, -108
48405, 46, 1046, 505, -42140, -226240, -104790, -637, 382, -138
48406, -948, 1201, -324, -84070, 3080, -73430, -637, 385, -130
48407, 1568, 794, 184, -54810, -239470, -95060, -628, 393, -132
48408, -304, 656, -842, -61740, -4690, -70840, -625, 384, -124
48409, 2218, -878, 1102, -39270, -79870, -83020, -630, 388, -138
48410, 1350, 80, 569, -8400, -25340, -92960, -630, 399, -136
48411, 1894, 892, -115, 24850, 52850, -92050, -613, 408, -141
48412, 2580, 684, -43, 67200, 188160, -83790, -618, 397, -132
48413, 892, -13, -308, 97230, 337400, -69510, -598, 400, -133
48414, 542, -738, -33, 105420, 374710, -66640, -588, 399, -118
48415, -764, 473, -189, 85890, 89180, -87780, -588, 402, -123
48416, 308, 3542, -579, 74270, 229250, -66710, -588, 399, -118
48417, 947, 3997, -703, 82250, 164500, -68880, -583, 397, -111
48418, -1927, 3841, -351, 34020, 304570, -70910, -571, 393, -109
48419, -2952, 192, 119, -72030, -101640, -115500, -565, 394, -115
48420, 265, 881, -398, -66710, -406700, -127470, -552, 388, -127
48421, 1499, 1968, -808, -67060, -147560, -94430, -561, 394, -132
48422, 1906, 1008, -483, -38360, -139370, -90790, -550, 381, -127
48423, 253, -1012, 629, -35210, 37800, -80710, -544, 381, -144
48424, -131, 105, -115, -38640, -176400, -105910, -538, 378, -133
48425, 795, 1926, -943, -21700, -131600, -94710, -546, 381, -139
48426, 2729, 1156, 256, 10570, -21840, -85960, -537, 379, -136
48427, 69, 276, 120, 30730, 148540, -73080, -529, 390, -133
48428, -491, -334, 22, 32480, 161140, -77070, -528, 390, -135
48429, -1002, -42, -155, 10290, -231350, -113890, -516, 384, -141
48430, 745, 1182, -321, -10010, 69230, -88830, -514, 379, -132
48431, 1362, 1193, -320, 17500, -26670, -91420, -511, 384, -139
48432, 143, 592, -298, 22330, 226590, -69090, -504, 381, -135
48433, -2361, 959, 331, 7910, 196210, -82250, -492, 390, -133
48434, -3416, 2851, -1235, -910, 81130, -105350, -495, 384, -136
48435, -1179, 2598, 339, -70, -7840, -128380, -486, 378, -124
48436, -389, 985, 58, -6930, 51170, -128590, -477, 376, -138
48437, 816, 261, 223, 2730, 54880, -126140, -471, 382, -133
48438, 457, 349, -190, 20650, 117880, -104930, -462, 373, -126
48439, 180, 51, 79, 25130, 150500, -96600, -450, 376, -124
48440, -326, 19, -326, 26320, 127470, -88410, -447, 379, -114
48441, -81, 539, -301, 23450, 162540, -77630, -432, 375, -109
48442, -288, 777, -554, 27650, 186970, -58100, -439, 372, -108
48443, -527, 1016, -570, 35210, 211400, -50190, -433, 355, -106
48444, -1819, 2415, -628, 27510, 218470, -56490, -427, 367, -81
48445, -3450, 2665, -1568, 12670, 179900, -68320, -427, 364, -87
48446, -729, 1346, -48, 22260, -21350, -94780, -417, 357, -82
48447, 709, 341, 52, 15050, -22400, -89110, -411, 342, -88
48448, -1167, 416, -891, -3080, 154980, -66150, -406, 346, -76
48449, 624, 428, 212, 11410, -25200, -81130, -400, 340, -90
48450, -1195, 816, -1044, -7210, 146930, -61390, -408, 339, -72
48451, 343, 500, -76, 7770, -8610, -71890, -394, 336, -87
48452, -419, 676, -499, 4690, 64540, -59010, -402, 339, -70
48453, -626, 434, -775, 280, 126210, -52430, -381, 342, -73
48454, -640, 438, -725, 3080, 110250, -52780, -385, 330, -60
48455, -661, 598, -1003, 4970, 126210, -52570, -379, 327, -70
48456, -385, 455, -1403, 15890, 158410, -47670, -376, 324, -61
48457, -1126, 527, -1838, 21000, 137410, -45780, -379, 325, -58
48458, -26, 945, -715, 24430, 141330, -51310, -376, 318, -39
48459, -1187, 1111, -2353, 34440, 143640, -59920, -375, 315, -42
48460, -1084, 1239, -1275, 38430, 225260, -65660, -369, 316, -21
48461, -876, 253, -887, 36190, 50820, -108290, -369, 313, -28
48462, 459, -34, -279, 33250, 92820, -109830, -370, 312, -13
48463, -195, 407, -887, 39550, 129570, -104440, -360, 304, -7
48464, 1122, 39, -122, 53480, 138180, -103670, -352, 303, 0
48465, -313, -215, -893, 59920, 211050, -96740, -352, 300, 4
48466, -529, 34, -1256, 70210, 250950, -101010, -343, 291, 27
48467, -949, 656, -2154, 82950, 221970, -112420, -352, 283, 39
48468, -984, 363, -2650, 101290, 223930, -125160, -336, 279, 46
48469, 28, -694, -1569, 121240, 199500, -136150, -334, 262, 61
48470, 1109, -1032, -1113, 154070, 257040, -138460, -343, 250, 79
48471, -2887, 1917, -3997, 16380, 1100540, -36540, -352, 250, 117
48472, -3997, -2088, -3997, 69160, 505190, 542290, -390, 276, 163
48473, -2941, -80, -1146, 139160, -738220, -21700, -367, 273, 147
48474, 3029, -271, 2516, 60830, 213850, -8820, -372, 253, 160
48475, -38, -417, -889, 87290, 241150, 32900, -375, 246, 175
48476, 2172, -791, 1839, 123200, 122080, 490, -384, 241, 195
48477, -2445, -637, -1766, 42770, 590520, 39130, -393, 250, 213
48478, -474, -74, -686, 104020, -169540, -33530, -390, 246, 205
48479, 1509, 823, 978, 61600, 212730, 15960, -412, 246, 229
48480, -1159, -313, -1331, 53830, 44800, 9940, -402, 244, 231
48481, -206, -492, -1503, 53760, 24710, -6370, -409, 246, 226
48482, -852, -461, -2102, 41510, 100030, 7910, -415, 238, 241
48483, -658, 176, -2041, 41090, 91420, 13650, -409, 232, 231
48484, -427, 63, -994, 41160, 45570, 6580, -406, 229, 244
48485, 126, 163, -391, 35910, 89040, 10150, -427, 231, 246
48486, -281, 429, -785, 33600, 82740, 4410, -429, 229, 253
48487, -965, 154, -1079, 22750, 21630, -1330, -435, 222, 250
48488, -295, 219, -1300, 12740, 6510, 140, -421, 235, 253
48489, -475, 265, -1350, 210, 40600, 4340, -426, 226, 243
48490, -243, 157, -1537, 490, -33600, -1540, -436, 234, 252
48491, 28, 251, -719, -1610, 25410, 2520, -414, 220, 253
48492, -523, 251, -1041, -2380, -19810, -1330, -426, 235, 258
48493, -208, 252, -424, -7700, -5460, 700, -423, 222, 238
48494, -238, 210, -921, -7700, -14140, -630, -423, 228, 241
48495, -390, 265, -1047, -3150, -6090, -980, -432, 232, 244
48496, -403, 134, -826, -1050, -5040, -1120, -424, 234, 255
48497, -506, 196, -811, -1190, 4410, 70, -417, 228, 244
48498, -284, 131, -1044, 140, 8680, 70, -427, 225, 249
48499, -314, 53, -800, 1960, 0, -770, -424, 226, 246
48500, -492, 83, -989, 840, 3850, 280, -429, 237, 250
48501, -320, 104, -832, 140, 490, 420, -421, 228, 255
48502, -366, 141, -1023, 140, -4340, -210, -426, 228, 247
48503, -349, 183, -844, -70, -4620, -420, -427, 220, 247
48504, -371, 188, -944, -1120, -560, 350, -427, 226, 259
48505, -303, 211, -787, 350, 2310, 70, -427, 234, 243
48506, -354, 183, -963, 560, -5950, -490, -436, 232, 246
48507, -442, 194, -888, 140, 10080, 630, -418, 231, 249
48508, -445, 150, -928, -350, 8820, 420, -420, 229, 241
48509, -308, 148, -867, 140, -4970, -630, -429, 237, 244
48510, -419, 113, -936, -770, 280, -140, -412, 228, 250
48511, -389, 155, -928, -910, 1960, 280, -427, 220, 249
48512, -425, 174, -947, -350, 2800, 420, -424, 232, 234
48513, -305, 153, -799, 770, -840, -210, -426, 226, 252
48514, -411, 189, -985, 140, -770, 70, -426, 222, 253
48515, -341, 171, -845, 420, 3290, 70, -426, 229, 252
48516, -378, 181, -988, 140, -3220, -420, -424, 231, 253
48517, -341, 165, -905, -210, -2520, -350, -421, 235, 247
48518, -381, 137, -895, -420, -420, -140, -427, 216, 240
48519, -391, 160, -913, -350, 840, 0, -432, 232, 253
48520, -350, 127, -898, 0, -1050, -210, -424, 225, 247
48521, -411, 166, -924, 0, 2240, 210, -427, 225, 250
48522, -424, 179, -940, 0, 1750, 140, -418, 235, 253
48523, -330, 163, -876, 140, -420, -140, -424, 226, 246
48524, -395, 173, -950, -210, -140, -70, -423, 223, 244
48525, -365, 162, -898, -280, 1050, 0, -423, 234, 250
48526, -371, 153, -897, -140, -140, 0, -420, 228, 253
48527, -382, 157, -892, 140, -140, -140, -429, 216, 246
48528, -358, 147, -920, -70, -280, -70, -424, 228, 253
48529, -401, 160, -908, 70, 1540, 0, -420, 232, 246
48530, -333, 153, -907, 140, -910, -140, -426, 231, 243
48531, -348, 164, -903, 0, -630, -70, -420, 235, 252
48532, -384, 162, -911, -210, 70, -140, -429, 226, 244
48533, -369, 164, -911, -140, 700, 0, -426, 225, 253
48534, -368, 152, -900, 70, -280, -210, -418, 232, 249
48535, -370, 160, -907, 70, -70, 0, -424, 238, 250
48536, -369, 160, -923, -140, 420, 0, -417, 226, 247
48537, -383, 157, -903, -70, 560, -70, -427, 229, 249
48538, -354, 159, -914, 0, 140, 0, -424, 229, 246
48539, -382, 159, -895, 0, 70, -70, -421, 231, 247
48540, -375, 158, -903, -70, -140, -210, -418, 235, 249
48541, -373, 162, -911, 0, 420, -70, -415, 232, 249
48542, -366, 152, -903, 0, 70, -140, -414, 229, 247
48543, -373, 161, -908, 70, 140, -70, -429, 226, 255
48544, -369, 156, -900, 70, -140, -140, -421, 228, 249
48545, -375, 157, -903, -70, 420, -70, -421, 232, 253
48546, -364, 160, -910, 0, 350, 0, -424, 228, 246
48547, -373, 158, -901, 70, 70, -70, -420, 229, 252
48548, -371, 162, -907, 70, -280, -140, -427, 238, 249
48549, -369, 158, -906, 0, 0, -70, -421, 235, 243
48550, -366, 155, -907, 0, 210, -70, -415, 225, 259
48551, -375, 160, -905, -70, 70, -70, -417, 238, 250
48552, -370, 157, -905, 0, 70, -140, -424, 229, 253
48553, -313, 112, -940, 350, -1330, -350, -424, 231, 247
48554, -388, 121, -946, 2170, -6720, -560, -424, 231, 256
48555, -355, 167, -899, 1540, 8540, 1050, -417, 214, 250
48556, -400, 178, -937, 910, -910, 70, -429, 231, 252
48557, -343, 166, -948, -280, 770, 210, -427, 229, 253
48558, -396, 187, -936, -630, -70, 210, -424, 235, 258
48559, -377, 199, -898, -770, 140, 0, -427, 235, 246
48560, -359, 193, -877, -420, -1470, -350, -423, 231, 247
48561, -360, 174, -903, -140, -1190, -350, -424, 231, 249
48562, -370, 163, -909, -70, 1050, -210, -430, 234, 253
48563, -358, 148, -904, 280, 490, -210, -429, 220, 256
48564, -377, 139, -906, -420, 210, -140, -427, 237, 243
48565, -369, 138, -911, -630, 70, -70, -421, 231, 241
48566, -378, 140, -908, -420, 210, 0, -418, 235, 244
48567, -364, 140, -891, -70, -280, -70, -439, 226, 252
48568, -372, 163, -894, 630, 70, 0, -423, 234, 255
48569, -367, 171, -913, 350, 140, 0, -429, 223, 255
48570, -373, 174, -920, -140, 840, 70, -421, 231, 253
48571, -369, 172, -930, -490, 350, 0, -426, 231, 256
48572, -376, 171, -915, -840, -840, -70, -420, 222, 255
48573, -378, 162, -908, -1050, -1190, -140, -426, 226, 258
48574, -363, 161, -895, -1050, -840, -140, -423, 231, 249
48575, -380, 165, -916, -980, -1470, -210, -424, 229, 246
48576, -370, 168, -909, -1120, -1050, -210, -414, 231, 252
48577, -372, 173, -916, -1820, -2590, -350, -435, 232, 247
48578, -369, 174, -914, -2170, -3080, -420, -426, 228, 244
48579, -372, 173, -921, -2660, -4410, -560, -436, 223, 252
48580, -361, 172, -916, -2940, -4480, -490, -424, 240, 247
48581, -363, 172, -913, -3080, -4900, -630, -423, 231, 244
48582, -371, 171, -902, -3360, -5110, -700, -426, 229, 259
48583, -373, 171, -909, -3570, -6020, -700, -423, 232, 240
48584, -365, 169, -907, -3710, -6300, -770, -418, 231, 253
48585, -369, 167, -914, -3920, -6370, -770, -420, 231, 244
48586, -368, 163, -911, -4060, -6510, -840, -424, 226, 252
48587, -389, 158, -910, -4340, -6580, -770, -418, 238, 249
48588, -377, 154, -902, -4550, -8890, -840, -420, 232, 250
48589, -382, 149, -910, -4900, -9310, -770, -420, 241, 249
48590, -376, 149, -906, -5180, -9100, -630, -427, 235, 249
48591, -384, 148, -911, -5670, -10640, -490, -426, 232, 244
48592, -382, 152, -900, -5880, -11900, -490, -420, 235, 244
48593, -388, 155, -904, -6160, -12670, -420, -411, 225, 244
48594, -389, 157, -897, -6440, -12600, -350, -417, 235, 246
48595, -397, 162, -903, -6650, -14350, -350, -415, 235, 229
48596, -398, 165, -906, -7350, -15540, -140, -414, 234, 246
48597, -414, 168, -911, -7700, -15400, 70, -421, 238, 247
48598, -419, 172, -910, -8260, -16590, 210, -418, 244, 241
48599, -416, 174, -911, -8750, -17010, 350, -414, 237, 241
48600, -411, 177, -908, -9100, -17220, 560, -418, 243, 237
48601, -422, 182, -901, -9730, -16940, 910, -409, 235, 232
48602, -430, 183, -901, -10010, -17360, 980, -411, 235, 225
48603, -416, 182, -892, -10360, -17500, 1190, -418, 235, 237
48604, -420, 183, -893, -10430, -17640, 1260, -411, 237, 238
48605, -433, 186, -897, -11200, -16940, 2170, -418, 241, 231
48606, -465, 173, -906, -11550, -17360, 2660, -411, 244, 237
48607, -480, 168, -924, -12180, -17570, 3150, -418, 244, 225
48608, -477, 168, -911, -12740, -16660, 3640, -408, 247, 226
48609, -490, 176, -918, -13440, -17360, 4060, -412, 234, 234
48610, -502, 180, -913, -15120, -18060, 5180, -414, 241, 229
48611, -463, 176, -889, -15750, -19600, 5600, -411, 237, 210
48612, -457, 178, -901, -15960, -18550, 6020, -405, 243, 226
48613, -433, 189, -895, -16030, -16730, 6370, -412, 238, 222
48614, -472, 203, -899, -16170, -14140, 6860, -405, 241, 229
48615, -495, 214, -885, -15470, -9030, 7420, -400, 243, 225
48616, -414, 217, -838, -14840, -14140, 6650, -414, 247, 226
48617, -483, 239, -873, -14980, -7140, 7070, -409, 243, 219
48618, -484, 268, -787, -15050, -9240, 6650, -414, 243, 226
48619, -532, 207, -749, -16380, -15680, 6650, -408, 246, 216
48620, -449, 192, -793, -15680, -25410, 6090, -399, 252, 211
48621, -456, 182, -845, -16030, -16730, 7280, -409, 252, 216
48622, -528, 204, -911, -15960, -20930, 6860, -408, 250, 219
48623, -479, 193, -864, -16170, -24150, 6720, -409, 255, 214
48624, -460, 220, -832, -17150, -28420, 6580, -403, 244, 210
48625, -488, 238, -850, -18130, -23520, 7350, -406, 252, 214
48626, -428, 223, -821, -17990, -30310, 7140, -400, 255, 213
48627, -494, 237, -900, -18270, -22540, 8190, -406, 250, 204
48628, -436, 229, -864, -17570, -26600, 7980, -405, 261, 201
48629, -467, 245, -842, -17010, -22050, 8400, -402, 259, 216
48630, -525, 255, -864, -17290, -18410, 8890, -409, 256, 198
48631, -486, 252, -806, -17430, -21000, 8820, -411, 261, 198
48632, -547, 265, -838, -17920, -20020, 9100, -403, 258, 205
48633, -552, 273, -826, -18970, -24220, 9240, -400, 261, 202
48634, -516, 276, -786, -19530, -26740, 9170, -405, 259, 198
48635, -558, 289, -805, -20300, -28770, 9170, -408, 261, 195
48636, -498, 284, -761, -20790, -31710, 9030, -396, 262, 190
48637, -529, 297, -782, -21210, -31500, 9100, -405, 273, 204
48638, -552, 307, -779, -21910, -34370, 8890, -385, 268, 187
48639, -547, 308, -742, -22540, -40040, 8540, -396, 267, 187
48640, -578, 305, -735, -23870, -43680, 8400, -393, 262, 181
48641, -480, 287, -711, -24290, -49420, 8120, -396, 274, 192
48642, -563, 311, -764, -24920, -45640, 8680, -402, 273, 180
48643, -540, 315, -774, -25550, -52500, 7980, -402, 273, 183
48644, -539, 327, -757, -25690, -56700, 7350, -391, 270, 163
48645, -548, 331, -743, -26110, -58170, 7070, -390, 268, 172
48646, -491, 336, -673, -26180, -59500, 6790, -393, 271, 154
48647, -465, 340, -733, -24780, -56910, 6440, -390, 273, 160
48648, -554, 361, -787, -23660, -54390, 6230, -393, 277, 151
48649, -506, 343, -737, -22680, -53900, 5600, -391, 285, 150
48650, -467, 338, -716, -20860, -50190, 5040, -393, 277, 153
48651, -511, 352, -767, -19110, -45990, 4690, -388, 283, 160
48652, -523, 343, -714, -16170, -38360, 3780, -387, 277, 157
48653, -540, 353, -691, -14910, -35210, 3220, -394, 294, 144
48654, -557, 359, -720, -13930, -36260, 2450, -388, 282, 141
48655, -555, 353, -694, -13370, -30940, 2520, -382, 271, 141
48656, -541, 348, -656, -12180, -30660, 1960, -375, 283, 142
48657, -602, 356, -691, -10430, -27720, 1190, -381, 283, 138
48658, -590, 346, -665, -9590, -25270, 770, -384, 292, 138
48659, -595, 343, -642, -8540, -23660, 280, -378, 285, 136
48660, -608, 345, -640, -7490, -23310, -350, -385, 288, 133
48661, -600, 340, -627, -5740, -21630, -1470, -382, 285, 132
48662, -588, 338, -619, -4690, -20300, -1960, -375, 283, 135
48663, -598, 337, -631, -3570, -19320, -2590, -381, 289, 124
48664, -607, 336, -637, -2520, -17710, -3150, -381, 292, 123
48665, -612, 335, -633, -1540, -17290, -3780, -385, 288, 127
48666, -639, 335, -633, -210, -17010, -4760, -385, 289, 132
48667, -651, 331, -626, -140, -18690, -5250, -381, 280, 115
48668, -623, 323, -613, 70, -20370, -5600, -379, 291, 127
48669, -628, 324, -630, 420, -20510, -5810, -376, 288, 118
48670, -618, 328, -639, 910, -20300, -6160, -369, 277, 124
48671, -626, 329, -633, 1890, -21070, -7210, -372, 274, 127
48672, -609, 326, -631, 2590, -20720, -7840, -378, 283, 120
48673, -617, 330, -633, 3360, -18760, -8120, -376, 280, 120
48674, -625, 333, -629, 4130, -18270, -8680, -373, 277, 123
48675, -658, 336, -642, 5110, -17850, -9590, -366, 280, 115
48676, -666, 330, -631, 5250, -18830, -10010, -384, 285, 126
48677, -678, 323, -625, 5110, -20580, -10290, -372, 282, 118
48678, -667, 315, -611, 4900, -22540, -10500, -370, 271, 117
48679, -681, 310, -629, 4690, -24220, -10640, -375, 276, 112
48680, -667, 315, -635, 4970, -25690, -11130, -367, 274, 121
48681, -663, 318, -645, 5320, -24850, -11270, -366, 283, 109
48682, -662, 325, -655, 5810, -23100, -11410, -369, 277, 112
48683, -661, 333, -671, 6580, -20930, -11480, -363, 268, 111
48684, -685, 342, -675, 7070, -16730, -11550, -366, 268, 120
48685, -673, 347, -637, 7700, -15960, -11340, -361, 271, 112
48686, -757, 349, -690, 7280, -9520, -10500, -360, 280, 115
48687, -721, 343, -648, 7350, -8680, -10010, -363, 276, 105
48688, -763, 342, -685, 7420, -6650, -9380, -358, 264, 117
48689, -1051, 512, -907, 4620, 18970, -2030, -354, 268, 111
48690, -1178, 405, -924, 1540, 5670, 840, -351, 270, 117
48691, -739, 150, -679, 1540, -7070, -140, -355, 280, 117
48692, -608, 154, -556, 1960, 13160, 280, -361, 273, 120
48693, -703, 264, -612, 2170, 2240, -280, -358, 283, 121
48694, -670, 372, -602, 490, -1820, 840, -357, 271, 123
48695, -721, 424, -666, -420, 490, 420, -357, 271, 115
48696, -711, 436, -694, -350, -2870, -420, -364, 274, 123
48697, -743, 381, -677, -700, 1960, -140, -370, 276, 118
48698, -647, 298, -569, -280, 700, -490, -369, 270, 124
48699, -663, 275, -599, -280, -70, -280, -366, 285, 117
48700, -757, 282, -679, -350, -840, 0, -364, 277, 121
48701, -721, 297, -650, -350, 350, 0, -361, 273, 108
48702, -733, 314, -658, -70, -1120, -140, -363, 274, 123
48703, -666, 318, -591, 490, 280, -70, -352, 267, 114
48704, -699, 326, -624, 490, 1890, 0, -363, 279, 114
48705, -703, 327, -641, 630, 1050, -140, -358, 265, 111
48706, -729, 320, -663, 490, 1890, -70, -361, 276, 111
48707, -705, 305, -638, 280, 630, -210, -369, 273, 112
48708, -685, 307, -620, 210, 490, -140, -357, 276, 114
48709, -701, 318, -630, 280, 1120, 0, -360, 273, 112
48710, -706, 325, -635, 490, 910, -70, -357, 274, 114
48711, -709, 325, -637, 560, 1610, -70, -360, 270, 112
48712, -717, 324, -636, 350, -350, -140, -361, 279, 105
48713, -700, 298, -635, 70, 1960, 0, -358, 270, 111
48714, -705, 295, -635, 280, -350, 0, -363, 277, 114
48715, -720, 313, -634, 280, 1680, 210, -363, 276, 112
48716, -705, 342, -644, 280, -560, -70, -355, 282, 111
48717, -671, 323, -621, 0, -910, -350, -358, 277, 117
48718, -709, 312, -630, -280, 910, -140, -358, 271, 126
48719, -699, 310, -632, -280, -1260, -210, -366, 274, 114
48720, -716, 303, -646, -140, 420, 0, -360, 273, 117
48721, -710, 300, -631, 0, 350, -70, -360, 271, 112
48722, -692, 313, -628, 210, 770, 0, -363, 273, 114
48723, -693, 322, -630, 280, 280, -70, -360, 276, 117
48724, -709, 327, -644, 0, 420, -70, -366, 268, 115
48725, -698, 326, -639, -140, -70, -140, -366, 279, 117
48726, -701, 317, -637, -210, 210, -140, -369, 274, 111
48727, -703, 304, -628, -70, 0, -70, -369, 276, 114
48728, -705, 310, -637, 70, 350, -70, -364, 283, 112
48729, -705, 315, -638, 140, 420, 0, -363, 277, 111
48730, -703, 318, -637, 140, 350, -70, -360, 276, 120
48731, -696, 321, -633, 0, 0, -70, -360, 276, 109
48732, -700, 316, -634, 0, 70, -140, -361, 271, 115
48733, -704, 313, -635, 0, 210, -70, -358, 279, 111
48734, -705, 312, -636, 0, 210, -70, -363, 274, 112
48735, -702, 311, -635, 70, 210, -70, -364, 280, 118
48736, -701, 315, -635, 0, 210, 0, -363, 273, 103
48737, -700, 319, -635, 0, 210, -70, -367, 271, 117
48738, -701, 318, -636, 0, 140, -70, -364, 282, 114
48739, -702, 316, -635, 0, 280, -70, -369, 279, 117
48740, -701, 313, -635, 0, 140, -70, -361, 265, 111
48741, -703, 313, -633, 0, 210, -70, -358, 277, 118
48742, -702, 315, -636, 0, 70, -70, -361, 283, 118
48743, -702, 317, -637, 0, 140, -70, -363, 271, 123
48744, -700, 316, -634, 0, 210, -70, -360, 276, 111
48745, -702, 316, -635, -70, 210, -70, -360, 279, 117
48746, -702, 314, -635, -70, 140, -140, -364, 265, 115
48747, -704, 314, -636, 0, 210, 0, -363, 285, 121
48748, -702, 314, -634, 70, 140, -70, -364, 276, 111
48749, -702, 315, -635, 70, 210, -70, -360, 280, 126
48750, -701, 316, -634, 0, 210, 0, -363, 277, 112
48751, -702, 316, -635, 70, 140, -70, -355, 276, 118
48752, -702, 316, -634, 0, 140, -70, -358, 265, 117
48753, -701, 314, -634, 0, 140, -70, -355, 276, 114
48754, -701, 314, -635, 70, 140, -70, -357, 276, 112
48755, -702, 315, -636, 70, 560, 0, -357, 273, 112
48756, -701, 315, -633, 0, 0, -70, -363, 270, 118
48757, -702, 316, -635, 70, 210, -70, -363, 270, 115
48758, -701, 315, -635, 0, 70, -70, -370, 276, 112
48759, -703, 314, -634, 0, 140, -70, -361, 271, 117
48760, -702, 314, -635, 0, 140, -70, -364, 270, 108
48761, -701, 315, -635, 0, 210, -70, -364, 277, 115
48762, -702, 315, -634, 0, 210, -70, -357, 274, 112
48763, -702, 315, -635, 0, 140, -140, -354, 274, 123
48764, -702, 315, -635, -70, 210, -70, -370, 280, 123
48765, -702, 315, -635, 0, 210, -70, -366, 270, 123
48766, -702, 314, -634, 0, 210, -70, -358, 274, 115
48767, -701, 315, -635, 0, 210, -70, -360, 274, 112
48768, -702, 316, -635, 70, 210, -70, -369, 286, 120
48769, -701, 315, -635, 0, 210, -70, -363, 273, 109
48770, -702, 315, -635, -70, 140, -70, -363, 280, 118
48771, -701, 316, -636, 0, 140, -70, -358, 267, 111
48772, -702, 315, -635, 0, 210, -70, -364, 271, 117
48773, -701, 315, -635, 0, 210, -70, -355, 277, 114
48774, -702, 315, -635, 0, 210, -70, -354, 276, 118
48775, -701, 315, -635, 70, 210, -140, -372, 276, 120
48776, -701, 316, -635, 0, 210, -70, -367, 279, 126
48777, -701, 316, -634, 0, 210, -70, -357, 274, 118
48778, -702, 314, -635, 70, 140, -70, -363, 277, 115
48779, -701, 315, -635, 0, 210, -70, -369, 285, 111
48780, -702, 315, -634, 0, 210, -70, -358, 274, 120
48781, -703, 315, -634, 0, 140, -70, -367, 273, 118
48782, -701, 315, -634, -70, 140, -70, -361, 277, 123
48783, -702, 315, -634, -70, 140, -70, -372, 270, 118
48784, -702, 315, -635, 0, 210, -70, -354, 268, 111
48785, -702, 315, -635, 70, 140, -70, -357, 273, 117
48786, -702, 315, -635, -70, 140, 0, -360, 271, 120
48787, -701, 315, -635, -70, 140, -70, -357, 268, 124
48788, -701, 315, -635, 0, 210, -70, -358, 273, 111
48789, -701, 315, -635, -70, 140, -70, -357, 274, 112
48790, -701, 315, -635, 0, 70, -70, -358, 273, 106
48791, -701, 315, -635, 0, 140, -70, -360, 270, 118
48792, -701, 315, -635, 0, 210, -70, -357, 271, 123
48793, -701, 315, -635, 0, 210, -70, -366, 274, 114
48794, -702, 315, -635, 0, 140, -70, -366, 277, 120
48795, -701, 315, -634, -70, 210, -70, -361, 273, 115
48796, -702, 314, -635, -70, 140, -70, -373, 276, 118
48797, -702, 315, -635, 0, 210, -70, -366, 280, 114
48798, -702, 315, -634, 0, 70, -70, -360, 267, 115
48799, -701, 315, -634, 0, 140, -70, -357, 273, 121
48800, -702, 315, -635, 0, 140, 0, -357, 268, 121
48801, -702, 315, -635, 0, 140, -70, -355, 283, 118
48802, -702, 315, -634, 70, 210, -70, -363, 282, 112
48803, -702, 315, -635, 0, 140, -70, -364, 271, 117
48804, -702, 315, -635, 0, 210, -70, -361, 276, 117
48805, -701, 314, -636, 0, 140, -70, -361, 276, 118
48806, -701, 315, -635, 0, 210, -70, -361, 280, 114
48807, -702, 314, -635, 0, 140, -70, -358, 277, 111
48808, -702, 315, -634, -70, 140, 0, -357, 279, 115
48809, -701, 314, -635, -70, 210, -70, -363, 268, 111
48810, -702, 315, -635, 70, 210, -70, -363, 280, 120
48811, -701, 315, -635, -70, 140, -70, -366, 277, 109
48812, -702, 315, -634, 70, 210, -70, -364, 273, 112
48813, -702, 315, -634, 0, 140, -70, -361, 268, 114
48814, -702, 315, -635, 0, 210, -70, -367, 270, 124
48815, -702, 315, -634, 0, 140, -70, -355, 262, 120
48816, -701, 315, -634, -70, 140, -70, -364, 276, 127
48817, -702, 315, -635, -70, 140, -70, -358, 277, 103
48818, -701, 315, -636, 0, 140, -70, -364, 282, 114
48819, -701, 315, -635, 0, 140, -70, -357, 271, 118
48820, -701, 316, -635, 70, 140, -70, -364, 273, 121
48821, -701, 314, -635, 0, 210, -70, -363, 276, 120
48822, -701, 315, -635, 0, 140, -70, -367, 277, 123
48823, -701, 315, -634, 0, 140, -70, -357, 271, 118
48824, -702, 315, -634, 0, 140, -70, -364, 273, 123
48825, -702, 314, -635, 0, 140, -140, -360, 264, 109
48826, -702, 315, -635, 0, 210, -70, -357, 271, 117
48827, -702, 315, -634, -70, 210, -70, -367, 271, 103
48828, -701, 315, -635, 0, 140, -70, -360, 279, 121
48829, -701, 315, -635, 0, 210, -70, -360, 280, 120
48830, -701, 315, -634, 0, 140, -70, -358, 273, 121
48831, -701, 315, -635, -70, 140, -70, -369, 273, 112
48832, -702, 315, -634, -70, 140, -70, -363, 273, 120
48833, -701, 315, -635, 70, 210, -140, -361, 274, 112
48834, -702, 316, -635, 0, 70, -70, -366, 270, 118
48835, -702, 314, -634, 70, 210, -70, -366, 271, 114
48836, -701, 315, -635, 0, 70, -70, -358, 274, 100
48837, -701, 315, -635, 0, 140, -70, -360, 276, 114
48838, -703, 314, -635, 70, 210, -70, -360, 268, 117
48839, -701, 315, -635, -70, 140, -70, -363, 279, 114
48840, -702, 315, -635, 0, 140, -70, -358, 267, 121
48841, -701, 315, -635, 0, 210, -70, -358, 280, 115
48842, -702, 315, -634, 0, 140, -70, -360, 270, 109
48843, -701, 315, -635, 0, 70, -70, -363, 276, 117
48844, -701, 315, -635, 0, 210, -70, -363, 276, 118
48845, -702, 316, -635, 0, 210, -70, -364, 273, 117
48846, -701, 315, -635, 0, 140, -70, -358, 285, 108
48847, -701, 315, -635, 0, 210, -70, -360, 277, 109
48848, -702, 315, -635, -70, 210, -70, -357, 273, 106
48849, -702, 315, -635, 0, 210, -70, -357, 273, 117
48850, -701, 315, -635, 0, 140, -140, -364, 264, 117
48851, -701, 314, -635, 0, 210, -70, -361, 277, 108
48852, -702, 315, -635, 0, 140, -70, -352, 277, 120
48853, -702, 315, -634, 0, 140, -140, -355, 280, 115
48854, -702, 315, -634, 70, 140, -70, -360, 273, 111
48855, -702, 314, -635, 0, 210, -70, -364, 274, 109
48856, -701, 315, -634, 0, 210, -70, -361, 277, 118
48857, -702, 315, -635, 0, 280, -70, -364, 270, 120
48858, -701, 315, -634, 0, 280, -70, -366, 279, 115
48859, -702, 315, -636, -70, 210, -70, -363, 273, 129
48860, -701, 315, -634, 0, 140, -70, -357, 274, 109
48861, -702, 315, -635, 0, 210, -70, -361, 283, 115
48862, -701, 315, -635, -70, 210, -140, -355, 262, 114
48863, -701, 315, -635, -70, 140, -70, -358, 280, 112
48864, -701, 315, -634, 0, 140, -70, -361, 270, 118
48865, -702, 315, -634, 70, 210, -70, -358, 274, 111
48866, -702, 316, -635, 0, 210, -70, -357, 276, 118
48867, -701, 315, -634, 0, 140, -140, -357, 270, 117
48868, -701, 315, -635, 0, 210, -70, -357, 273, 120
48869, -701, 315, -635, 0, 140, -70, -363, 279, 123
48870, -702, 315, -635, 0, 140, -70, -358, 276, 112
48871, -702, 315, -636, 0, 210, -70, -357, 271, 117
48872, -701, 315, -635, 70, 140, -70, -361, 280, 118
48873, -701, 316, -635, 0, 210, -70, -366, 276, 117
48874, -701, 315, -634, 0, 70, -70, -360, 277, 121
48875, -702, 316, -635, -70, 70, -70, -355, 267, 117
48876, -701, 315, -634, 0, 140, -70, -366, 276, 118
48877, -702, 316, -634, -70, 210, -70, -360, 264, 111
48878, -702, 315, -635, 0, 140, -70, -352, 268, 109
48879, -702, 315, -634, -70, 140, -70, -360, 268, 114
48880, -702, 315, -635, 0, 140, -70, -367, 282, 109
48881, -702, 315, -635, -70, 210, -70, -358, 271, 111
48882, -702, 315, -635, 0, 140, -70, -360, 268, 118
48883, -701, 315, -635, 70, 140, -70, -361, 268, 117
48884, -701, 315, -635, 0, 140, -70, -367, 273, 117
48885, -702, 314, -635, 0, 140, -70, -358, 279, 120
48886, -702, 315, -636, 0, 210, -70, -361, 273, 123
48887, -701, 315, -635, 0, 140, -70, -367, 274, 112
48888, -702, 315, -635, 0, 140, 0, -370, 271, 105
48889, -702, 315, -635, -70, 140, -140, -367, 273, 114
48890, -702, 315, -634, -70, 140, -70, -375, 270, 129
48891, -701, 315, -635, 0, 140, -70, -360, 277, 115
48892, -701, 315, -633, 0, 210, -70, -354, 265, 115
48893, -701, 314, -635, 0, 210, -70, -358, 276, 118
48894, -702, 315, -634, 0, 210, -70, -361, 268, 124
48895, -702, 315, -636, 0, 210, -70, -364, 271, 117
48896, -701, 315, -636, 0, 210, -70, -366, 276, 111
48897, -702, 315, -634, 0, 70, -70, -361, 274, 114
48898, -702, 315, -635, 0, 210, -70, -372, 271, 117
48899, -702, 315, -635, 0, 140, -70, -360, 276, 115
48900, -701, 315, -635, 0, 140, -70, -367, 279, 117
48901, -701, 315, -635, 0, 140, -140, -369, 270, 114
48902, -701, 315, -635, 0, 210, -140, -369, 273, 121
48903, -701, 315, -635, 0, 70, -70, -363, 271, 114
48904, -702, 315, -635, 0, 210, -70, -357, 277, 112
48905, -701, 314, -634, 0, 210, -70, -352, 267, 120
48906, -702, 315, -635, 0, 140, -70, -360, 273, 118
48907, -702, 315, -635, 70, 140, -70, -361, 270, 120
48908, -701, 315, -635, -70, 140, -70, -367, 277, 109
48909, -701, 315, -635, -70, 210, -70, -358, 279, 114
48910, -701, 315, -634, 0, 210, -70, -358, 271, 112
48911, -702, 315, -636, 0, 210, -70, -345, 280, 118
48912, -701, 315, -635, 0, 210, -70, -361, 274, 120
48913, -700, 315, -634, 0, 140, 0, -357, 270, 117
48914, -702, 315, -636, 0, 140, -140, -363, 279, 123
48915, -702, 315, -634, 0, 70, -70, -358, 277, 117
48916, -701, 315, -634, 0, 70, -140, -358, 277, 117
48917, -702, 315, -634, -70, 140, -70, -364, 277, 120
48918, -702, 315, -635, 70, 140, -70, -360, 271, 124
48919, -701, 315, -635, 0, 210, -70, -367, 277, 112
48920, -701, 315, -636, -70, 140, -70, -358, 265, 114
48921, -701, 315, -635, -70, 210, -70, -357, 268, 112
48922, -703, 315, -634, 0, 140, -70, -360, 271, 111
48923, -702, 315, -634, 0, 140, -70, -357, 268, 115
48924, -702, 315, -635, 0, 210, -140, -364, 276, 121
48925, -701, 315, -634, 70, 140, -70, -349, 280, 115
48926, -702, 315, -635, 0, 140, -70, -360, 277, 112
48927, -702, 314, -635, 0, 140, -70, -363, 273, 111
48928, -701, 315, -634, -70, 140, -70, -369, 283, 118
48929, -702, 315, -635, 0, 210, -70, -357, 274, 115
48930, -702, 315, -635, 70, 140, -70, -363, 279, 120
48931, -702, 315, -635, -70, 210, -70, -364, 273, 112
48932, -701, 315, -634, -70, 140, 0, -360, 271, 118
48933, -701, 315, -635, -70, 140, -70, -364, 273, 117
48934, -702, 315, -635, 0, 210, -70, -372, 277, 120
48935, -701, 315, -634, -70, 210, -140, -363, 276, 115
48936, -702, 315, -635, 0, 280, -70, -358, 273, 123
48937, -702, 315, -636, -70, 210, 0, -358, 274, 120
48938, -701, 315, -635, -70, 210, -70, -360, 268, 114
48939, -702, 315, -635, -70, 140, -70, -358, 276, 118
48940, -702, 315, -635, 0, 210, -70, -364, 274, 120
48941, -702, 315, -634, 0, 140, -70, -357, 280, 108
48942, -702, 316, -635, 0, 210, -70, -366, 276, 108
48943, -701, 315, -634, 0, 140, -70, -358, 267, 118
48944, -702, 315, -635, 70, 140, -70, -367, 280, 117
48945, -701, 316, -635, 0, 210, -70, -364, 283, 121
48946, -702, 315, -635, 70, 210, -70, -366, 267, 112
48947, -702, 315, -634, 0, 210, -70, -360, 271, 111
48948, -701, 315, -635, 0, 210, -70, -358, 277, 120
48949, -702, 314, -635, 0, 140, -70, -364, 277, 111
48950, -702, 315, -636, 0, 140, -70, -372, 276, 121
48951, -701, 315, -634, -70, 140, -70, -358, 280, 111
48952, -701, 314, -635, 0, 140, -70, -357, 271, 124
48953, -701, 315, -636, -70, 210, -70, -366, 277, 121
48954, -702, 315, -634, 0, 140, -70, -358, 270, 114
48955, -702, 315, -636, 0, 210, -70, -366, 274, 118
48956, -701, 315, -635, 0, 210, -70, -354, 267, 123
48957, -702, 315, -635, 0, 210, -70, -363, 282, 109
48958, -702, 315, -634, 0, 140, -70, -358, 273, 114
48959, -702, 316, -635, 0, 140, -70, -357, 273, 123
48960, -702, 314, -635, 0, 140, -70, -363, 282, 114
48961, -701, 315, -634, 0, 210, -70, -366, 267, 112
48962, -701, 315, -636, 0, 70, -70, -360, 270, 112
48963, -704, 315, -635, 70, 280, -70, -363, 279, 127
48964, -703, 315, -635, -70, 140, -140, -351, 274, 114
48965, -699, 315, -633, 0, 280, -70, -364, 274, 115
48966, -704, 315, -636, 70, 70, -70, -363, 277, 112
48967, -702, 315, -634, 0, 210, -70, -367, 282, 115
48968, -701, 314, -634, -70, 280, -70, -357, 270, 115
48969, -702, 316, -635, 0, 70, -70, -358, 280, 123
48970, -701, 315, -634, 0, 210, -70, -364, 273, 106
48971, -701, 315, -634, -70, 140, -70, -357, 270, 121
48972, -703, 315, -635, 0, 210, -70, -357, 273, 115
48973, -701, 315, -635, 0, 210, -70, -360, 268, 115
48974, -701, 315, -634, 0, 140, -70, -360, 279, 112
48975, -701, 316, -635, -70, 140, -70, -360, 265, 115
48976, -701, 315, -634, 0, 0, -70, -363, 279, 126
48977, -702, 315, -635, 0, 210, -70, -361, 267, 112
48978, -702, 314, -634, 0, 210, -70, -369, 288, 118
48979, -702, 314, -635, 0, 140, -70, -363, 265, 117
48980, -703, 315, -635, -70, 140, -70, -364, 273, 114
48981, -701, 315, -635, 0, 70, -70, -361, 274, 117
48982, -701, 316, -635, 0, 210, -70, -363, 268, 124
48983, -701, 315, -635, 0, 140, -140, -367, 273, 112
48984, -701, 315, -635, 70, 140, -70, -364, 276, 114
48985, -702, 315, -635, 0, 140, -70, -361, 270, 118
48986, -702, 315, -635, 0, 140, -70, -357, 276, 117
48987, -701, 315, -635, 70, 210, -70, -363, 274, 114
48988, -702, 315, -635, -70, 210, -70, -366, 271, 126
48989, -701, 315, -636, 0, 140, -70, -361, 280, 118
48990, -702, 315, -636, 0, 210, -70, -360, 282, 129
48991, -701, 315, -634, 70, 140, -70, -355, 276, 111
48992, -702, 316, -634, -70, 140, -70, -364, 277, 112
48993, -701, 315, -635, 0, 140, 0, -354, 274, 115
48994, -702, 315, -636, 0, 140, 0, -357, 274, 114
48995, -702, 315, -634, 0, 210, -70, -366, 279, 117
48996, -702, 314, -634, 0, 140, -70, -360, 279, 120
48997, -702, 315, -634, 0, 210, -70, -358, 274, 115
48998, -701, 316, -635, 0, 140, -70, -357, 277, 127
48999, -702, 315, -635, -70, 210, -70, -360, 270, 112
49000, -701, 315, -635, 0, 140, -70, -367, 279, 121
49001, -702, 315, -635, 0, 140, -70, -360, 265, 120
49002, -701, 315, -635, 0, 140, -140, -364, 280, 118
49003, -702, 314, -635, 0, 210, -70, -366, 276, 112
49004, -702, 315, -634, 0, 140, -140, -363, 276, 109
49005, -701, 315, -634, 70, 210, -70, -366, 267, 109
49006, -702, 315, -635, 0, 140, -140, -361, 283, 115
49007, -702, 315, -635, 70, 140, -70, -355, 282, 115
49008, -702, 315, -634, 0, 210, -70, -363, 274, 115
49009, -702, 315, -635, -70, 70, -70, -358, 274, 120
49010, -702, 315, -634, 0, 140, -70, -366, 274, 115
49011, -702, 315, -635, 0, 140, -70, -355, 270, 108
49012, -702, 315, -635, 0, 140, -70, -367, 274, 120
49013, -702, 315, -636, -70, 140, -70, -363, 282, 109
49014, -701, 315, -635, 0, 70, 0, -363, 274, 115
49015, -702, 316, -634, 0, 140, -70, -364, 273, 114
49016, -702, 315, -635, -70, 140, -70, -366, 271, 121
49017, -702, 315, -636, 0, 140, -70, -360, 273, 115
49018, -702, 315, -634, 0, 140, -70, -354, 261, 108
49019, -702, 315, -635, -70, 140, -70, -357, 276, 121
49020, -701, 315, -634, 0, 140, -70, -357, 282, 115
49021, -701, 314, -633, -70, 140, -70, -357, 273, 126
49022, -702, 314, -634, -70, 140, -70, -366, 288, 111
49023, -702, 315, -634, 0, 140, -70, -364, 267, 106
49024, -702, 315, -635, 0, 140, -70, -363, 277, 106
49025, -701, 315, -635, 0, 210, -70, -363, 282, 108
49026, -702, 315, -635, 0, 210, -70, -363, 273, 112
49027, -702, 316, -635, 0, 210, -140, -357, 279, 108
49028, -702, 315, -634, 70, 210, -70, -358, 270, 114
49029, -701, 316, -634, 0, 210, -70, -361, 276, 115
49030, -701, 315, -635, 0, 210, -70, -360, 280, 120
49031, -702, 315, -635, 0, 140, -70, -361, 267, 117
49032, -702, 315, -635, 0, 140, -70, -358, 280, 115
49033, -702, 316, -635, 0, 140, -70, -355, 276, 112
49034, -701, 315, -635, 70, 70, -70, -358, 280, 115
49035, -701, 315, -635, 0, 70, -70, -358, 270, 111
49036, -702, 315, -634, 0, 140, -70, -354, 271, 115
49037, -702, 315, -635, 0, 140, -70, -360, 267, 105
49038, -702, 315, -634, -70, 140, -70, -363, 273, 118
49039, -702, 316, -635, 0, 210, -70, -363, 274, 112
49040, -700, 315, -634, 0, 280, -70, -361, 268, 118
49041, -704, 315, -638, 0, 140, -70, -354, 273, 117
49042, -700, 315, -634, -70, 280, -70, -358, 268, 120
49043, -702, 315, -635, 0, 140, -70, -358, 264, 105
49044, -701, 315, -634, 0, 210, -70, -372, 279, 120
49045, -701, 315, -635, 0, 210, -70, -352, 276, 109
49046, -686, 293, -651, 0, -70, -140, -358, 277, 115
49047, -708, 308, -567, 630, -6860, -420, -360, 279, 105
49048, -649, 317, -594, 0, 7980, 560, -366, 279, 112
49049, -727, 335, -696, 420, -5180, -560, -357, 276, 118
49050, -686, 316, -591, -350, 5320, 490, -366, 273, 108
49051, -704, 315, -635, 210, -5110, -630, -361, 276, 105
49052, -666, 317, -636, 140, -4900, -630, -357, 268, 118
49053, -747, 304, -653, -490, 4480, 420, -360, 268, 114
49054, -639, 289, -589, 420, -3640, -560, -360, 279, 111
49055, -750, 301, -642, 560, 4480, 350, -355, 265, 114
49056, -689, 312, -622, 910, 210, 0, -367, 268, 96
49057, -709, 329, -655, 280, 1680, 70, -370, 273, 121
49058, -675, 326, -623, 70, -630, 0, -366, 280, 118
49059, -712, 329, -652, -490, -840, -70, -358, 279, 114
49060, -682, 335, -623, -630, -70, -140, -358, 283, 121
49061, -706, 323, -645, -280, 1960, 70, -358, 273, 115
49062, -694, 300, -625, 70, -1960, -350, -364, 280, 117
49063, -709, 302, -650, -140, 1260, 70, -363, 277, 121
49064, -690, 299, -620, 70, 0, -70, -360, 265, 117
49065, -719, 310, -642, 210, 140, -70, -361, 282, 112
49066, -685, 333, -639, 70, -840, -140, -349, 267, 121
49067, -702, 322, -638, -140, 770, 0, -366, 274, 114
49068, -680, 306, -617, 70, -210, -140, -360, 273, 120
49069, -690, 289, -632, 630, 980, 0, -358, 273, 111
49070, -729, 279, -581, 1610, 6650, 490, -360, 273, 120
49071, -664, 327, -654, 770, 3640, 280, -357, 283, 111
49072, -709, 351, -689, 140, -1330, -140, -348, 277, 117
49073, -662, 331, -616, -910, 70, 0, -352, 279, 111
49074, -711, 327, -634, -1120, -4060, -420, -357, 270, 115
49075, -691, 340, -627, -1050, -3570, -350, -370, 273, 114
49076, -721, 303, -639, -910, 210, -70, -360, 274, 108
49077, -697, 291, -622, -560, -2660, -420, -358, 273, 117
49078, -698, 295, -636, -560, -210, 0, -354, 274, 115
49079, -697, 305, -624, -350, -700, 0, -364, 279, 118
49080, -697, 336, -642, -770, -1610, -70, -361, 276, 111
49081, -698, 341, -647, -980, -2660, -140, -358, 277, 114
49082, -696, 331, -632, -1400, -2100, -70, -358, 279, 118
49083, -692, 320, -628, -1540, -3570, -210, -361, 273, 109
49084, -702, 314, -635, -1680, -2870, -140, -342, 264, 109
49085, -713, 303, -634, -1400, -3150, -140, -354, 283, 109
49086, -715, 304, -633, -1400, -2520, 0, -351, 279, 117
49087, -707, 306, -632, -1330, -3220, 140, -363, 273, 108
49088, -721, 309, -635, -1400, -2660, 280, -358, 270, 111
49089, -732, 312, -631, -1890, -5880, 630, -357, 276, 105
49090, -740, 304, -641, -2450, -5460, 1190, -358, 274, 123
49091, -739, 298, -640, -2800, -7700, 1540, -352, 270, 106
49092, -750, 295, -657, -3290, -7770, 2170, -363, 279, 114
49093, -756, 300, -657, -3710, -7770, 2800, -351, 282, 109
49094, -759, 312, -659, -4900, -8750, 4130, -363, 270, 114
49095, -767, 319, -657, -5670, -9800, 4830, -363, 280, 114
49096, -782, 329, -655, -6720, -11200, 5670, -355, 276, 118
49097, -773, 338, -651, -7840, -13510, 6370, -351, 279, 108
49098, -777, 348, -652, -9240, -15330, 7070, -364, 276, 111
49099, -772, 370, -640, -12250, -19950, 8330, -357, 286, 90
49100, -766, 371, -638, -13790, -24010, 8890, -370, 285, 103
49101, -746, 371, -636, -15190, -25200, 9660, -367, 276, 105
49102, -763, 372, -650, -16240, -26740, 10290, -354, 289, 91
49103, -762, 376, -640, -18200, -28910, 11200, -349, 277, 91
49104, -792, 379, -624, -19390, -30730, 11760, -366, 283, 90
49105, -762, 371, -593, -20510, -33810, 12250, -361, 288, 94
49106, -741, 366, -589, -21350, -34300, 12950, -355, 285, 99
49107, -752, 365, -585, -21770, -32270, 13790, -357, 282, 90
49108, -761, 364, -604, -22400, -34230, 14420, -354, 298, 82
49109, -797, 372, -608, -22680, -35210, 14770, -355, 286, 79
49110, -779, 367, -575, -23310, -35840, 15190, -358, 294, 85
49111, -758, 369, -571, -23450, -35840, 15820, -361, 283, 87
49112, -791, 380, -578, -23660, -34300, 16590, -363, 297, 84
49113, -781, 380, -567, -24080, -35210, 17500, -363, 292, 67
49114, -802, 385, -574, -24290, -35350, 17990, -366, 292, 70
49115, -791, 375, -555, -24570, -36050, 18410, -360, 301, 72
49116, -770, 368, -541, -24500, -35560, 18970, -363, 303, 67
49117, -808, 391, -550, -24080, -32760, 19950, -366, 301, 55
49118, -816, 396, -550, -24010, -33530, 20160, -363, 301, 57
49119, -803, 390, -527, -24220, -33670, 20510, -367, 297, 57
49120, -799, 388, -510, -24080, -34230, 20930, -367, 304, 49
49121, -801, 389, -508, -24220, -35770, 21210, -364, 303, 45
49122, -787, 418, -523, -23940, -34230, 21980, -361, 304, 48
49123, -788, 435, -515, -23800, -33390, 22260, -370, 306, 43
49124, -806, 449, -514, -23800, -32410, 22610, -375, 318, 48
49125, -813, 451, -502, -23870, -33040, 22890, -370, 306, 34
49126, -814, 456, -494, -24290, -33390, 23310, -366, 310, 42
49127, -792, 465, -479, -25060, -34580, 24220, -369, 318, 37
49128, -783, 471, -474, -25410, -34440, 24780, -376, 319, 37
49129, -788, 475, -473, -25550, -33880, 25200, -369, 316, 39
49130, -783, 484, -475, -25620, -33250, 25620, -369, 310, 33
49131, -786, 483, -455, -24850, -28420, 26530, -378, 318, 15
49132, -815, 493, -464, -24640, -28000, 26740, -372, 315, 24
49133, -784, 494, -448, -24640, -27510, 26810, -373, 312, 16
49134, -780, 495, -440, -24570, -25900, 27160, -378, 321, 4
49135, -782, 496, -426, -24570, -25130, 27510, -382, 321, 12
49136, -801, 495, -407, -24850, -26600, 27860, -390, 327, 15
49137, -810, 494, -398, -25270, -27720, 28000, -379, 328, 9
49138, -812, 495, -391, -25760, -31220, 27930, -373, 339, 15
49139, -798, 496, -381, -26390, -34090, 27860, -384, 321, 3
49140, -791, 503, -377, -26880, -37170, 27790, -387, 337, 9
49141, -788, 520, -369, -27930, -41650, 27930, -391, 340, -6
49142, -796, 526, -360, -28280, -42910, 28140, -375, 327, -19
49143, -808, 533, -362, -28560, -45150, 28210, -385, 336, -18
49144, -809, 542, -358, -28700, -45850, 28420, -381, 334, -9
49145, -809, 542, -340, -29470, -49840, 28420, -393, 346, -15
49146, -793, 534, -327, -29820, -52640, 28350, -400, 346, -12
49147, -775, 533, -311, -30030, -53970, 28350, -393, 337, -25
49148, -781, 540, -307, -30170, -55510, 28350, -391, 340, -25
49149, -768, 539, -292, -30030, -57050, 28280, -391, 346, -36
49150, -770, 533, -278, -28630, -54950, 28490, -394, 339, -42
49151, -802, 547, -283, -27860, -53900, 28350, -403, 345, -39
49152, -813, 553, -282, -27300, -54250, 28070, -403, 342, -43
49153, -803, 551, -275, -26950, -54740, 27930, -399, 345, -45
49154, -779, 553, -260, -26250, -54110, 28000, -403, 342, -48
49155, -781, 580, -252, -25550, -52780, 28280, -399, 343, -60
49156, -784, 593, -251, -25200, -52360, 28420, -408, 355, -54
49157, -779, 598, -235, -24850, -50890, 28630, -415, 352, -57
49158, -779, 599, -233, -24150, -50330, 28840, -402, 349, -75
49159, -767, 597, -216, -22470, -46060, 29260, -409, 354, -64
49160, -749, 597, -203, -21630, -42140, 29400, -417, 358, -64
49161, -747, 597, -200, -20650, -39970, 29400, -417, 357, -69
49162, -731, 604, -189, -19810, -36190, 29680, -423, 354, -67
49163, -749, 620, -196, -18900, -33460, 29750, -415, 358, -76
49164, -748, 631, -182, -17570, -28770, 29890, -424, 361, -73
49165, -730, 634, -167, -16940, -26950, 30100, -429, 360, -87
49166, -751, 643, -174, -16450, -24080, 30450, -421, 364, -93
49167, -748, 642, -156, -16030, -22330, 30730, -426, 370, -87
49168, -752, 646, -148, -15470, -19110, 31220, -429, 355, -82
49169, -737, 638, -126, -14630, -18060, 31220, -429, 366, -84
49170, -759, 639, -138, -14210, -17710, 31290, -427, 361, -87
49171, -730, 640, -113, -13790, -17360, 31430, -439, 367, -78
49172, -755, 647, -121, -13510, -17990, 31430, -426, 361, -91
49173, -756, 665, -110, -13300, -21420, 31430, -439, 369, -90
49174, -742, 664, -107, -13090, -25480, 31220, -439, 364, -96
49175, -756, 661, -116, -13160, -26250, 31290, -442, 373, -91
49176, -748, 654, -114, -13230, -29260, 31150, -436, 367, -99
49177, -754, 661, -119, -13510, -28910, 31290, -435, 372, -102
49178, -723, 699, -113, -13580, -28630, 31570, -447, 373, -102
49179, -706, 705, -104, -13580, -28560, 31850, -460, 370, -97
49180, -699, 705, -92, -13300, -26600, 32340, -448, 370, -102
49181, -707, 709, -90, -12880, -25830, 32830, -457, 372, -103
49182, -721, 714, -86, -12110, -23520, 33600, -457, 378, -115
49183, -737, 711, -82, -11900, -22190, 34020, -462, 376, -100
49184, -714, 709, -68, -11550, -21140, 34370, -451, 373, -100
49185, -720, 716, -70, -11340, -19670, 34930, -459, 384, -117
49186, -701, 723, -58, -11200, -18690, 35420, -457, 373, -108
49187, -718, 737, -53, -10920, -16590, 37030, -472, 385, -103
49188, -744, 741, -63, -10850, -15540, 37870, -475, 384, -108
49189, -730, 738, -52, -10640, -14980, 38570, -475, 376, -117
49190, -736, 742, -59, -10500, -13720, 39340, -487, 382, -100
49191, -717, 746, -51, -10290, -12950, 40180, -471, 388, -115
49192, -717, 763, -47, -10150, -10780, 42070, -478, 378, -111
49193, -731, 775, -53, -10290, -9590, 43120, -478, 376, -111
49194, -735, 782, -51, -10500, -9870, 44100, -483, 388, -117
49195, -727, 780, -48, -10850, -10220, 45080, -490, 387, -120
49196, -717, 768, -44, -10920, -9450, 47040, -498, 393, -126
49197, -676, 756, -39, -10780, -8470, 47810, -493, 381, -120
49198, -639, 753, -30, -10290, -6300, 48510, -502, 382, -115
49199, -638, 765, -30, -9660, -3430, 49280, -501, 378, -120
49200, -663, 798, -34, -9730, -2310, 49770, -499, 393, -115
49201, -644, 805, -36, -10780, -3780, 51100, -499, 385, -109
49202, -670, 810, -35, -11270, -4480, 51730, -502, 391, -111
49203, -695, 815, -45, -12110, -7280, 52360, -507, 385, -117
49204, -677, 807, -34, -12880, -9310, 52920, -516, 387, -124
49205, -672, 799, -39, -13370, -12040, 53410, -522, 385, -115
49206, -610, 796, -27, -13720, -14350, 54250, -513, 391, -127
49207, -579, 806, -18, -13650, -13230, 54670, -526, 391, -121
49208, -587, 825, -23, -13860, -13860, 54880, -523, 393, -127
49209, -573, 835, -19, -14420, -15610, 55020, -523, 388, -127
49210, -563, 831, -18, -15330, -17570, 55580, -534, 390, -126
49211, -567, 827, -9, -15610, -19040, 55720, -534, 394, -123
49212, -546, 817, 0, -15820, -20930, 55720, -544, 391, -129
49213, -523, 801, 1, -15680, -21350, 55720, -534, 387, -129
49214, -472, 785, 18, -14910, -20650, 55720, -544, 387, -127
49215, -407, 789, 33, -12600, -14490, 55860, -546, 391, -127
49216, -411, 812, 28, -11480, -9380, 56350, -552, 400, -133
49217, -389, 825, 43, -10290, -5460, 56700, -553, 384, -130
49218, -419, 841, 33, -9170, 1120, 57470, -558, 403, -132
49219, -447, 869, 40, -8400, 5670, 58100, -564, 394, -136
49220, -500, 918, 28, -9380, 4760, 57890, -568, 394, -133
49221, -463, 901, 35, -10640, 210, 57190, -562, 387, -133
49222, -416, 874, 42, -11690, -2940, 56630, -579, 405, -129
49223, -377, 854, 52, -12460, -5950, 56000, -574, 391, -145
49224, -375, 853, 49, -13370, -10570, 54670, -576, 387, -141
49225, -396, 870, 44, -13930, -13930, 53900, -580, 394, -148
49226, -374, 860, 45, -14000, -15820, 53620, -579, 390, -132
49227, -351, 852, 50, -13300, -14210, 53830, -588, 394, -145
49228, -337, 857, 53, -12040, -10360, 54250, -594, 399, -147
49229, -342, 894, 50, -9590, -490, 55510, -597, 399, -142
49230, -326, 900, 56, -8680, 4410, 56140, -597, 385, -147
49231, -313, 896, 58, -7630, 9450, 56840, -601, 393, -150
49232, -305, 895, 63, -6720, 15540, 57680, -601, 384, -151
49233, -320, 903, 59, -5950, 21070, 58660, -607, 384, -147
49234, -426, 939, 32, -5180, 30590, 60690, -609, 393, -145
49235, -404, 956, 73, -5950, 26950, 61110, -609, 381, -150
49236, -490, 982, 26, -7630, 23800, 61740, -615, 384, -147
49237, -432, 983, 68, -9590, 17220, 62090, -619, 384, -154
49238, -404, 970, 61, -14490, 1470, 62300, -616, 379, -156
49239, -398, 956, 40, -16590, -5390, 62440, -616, 384, -156
49240, -333, 933, 62, -18200, -10990, 62580, -627, 388, -151
49241, -319, 925, 48, -19110, -14070, 62720, -631, 376, -160
49242, -266, 915, 60, -19460, -16240, 62580, -637, 369, -166
49243, -187, 905, 68, -18830, -15120, 62580, -642, 376, -165
49244, -161, 902, 76, -18060, -12180, 62650, -643, 369, -165
49245, -144, 904, 78, -17290, -10290, 62650, -646, 378, -160
49246, -134, 913, 80, -16730, -7700, 62510, -648, 379, -168
49247, -119, 917, 85, -16310, -6930, 62090, -651, 373, -159
49248, -112, 921, 93, -15890, -5740, 60760, -663, 375, -166
49249, -107, 922, 95, -16100, -6370, 59990, -655, 372, -181
49250, -79, 915, 102, -16240, -8120, 59010, -658, 370, -160
49251, -58, 904, 114, -16030, -7840, 58380, -652, 367, -180
49252, 2, 906, 141, -14140, -3430, 57400, -667, 358, -175
49253, 0, 914, 113, -12740, -140, 56910, -675, 369, -177
49254, 66, 915, 143, -11270, 7350, 56490, -664, 372, -171
49255, 68, 912, 131, -9450, 12180, 55930, -666, 355, -180
49256, 74, 922, 152, -8260, 21070, 55510, -675, 364, -180
49257, -2, 961, 152, -8890, 20090, 52570, -681, 358, -193
49258, -72, 986, 125, -11200, 12530, 50120, -675, 355, -193
49259, -40, 972, 158, -14070, -910, 47110, -682, 351, -186
49260, -68, 953, 140, -17150, -14140, 44380, -682, 360, -189
49261, -17, 926, 158, -19460, -27370, 41720, -693, 360, -186
49262, 0, 919, 139, -21490, -43120, 37170, -684, 355, -178
49263, -17, 918, 126, -21560, -50400, 35000, -688, 357, -192
49264, 24, 909, 141, -21630, -54810, 33250, -688, 351, -183
49265, 64, 912, 134, -21000, -58380, 31780, -690, 349, -184
49266, 139, 942, 135, -18760, -53200, 30520, -691, 343, -192
49267, 187, 950, 151, -17080, -46480, 30450, -700, 348, -183
49268, 181, 960, 143, -15120, -37030, 30730, -702, 345, -187
49269, 197, 961, 154, -12880, -27300, 31150, -697, 354, -189
49270, 178, 949, 147, -10710, -17080, 31850, -705, 342, -180
49271, 141, 944, 166, -6790, -910, 32340, -702, 349, -187
49272, 138, 942, 176, -5600, 3430, 31920, -705, 333, -189
49273, 121, 939, 180, -4830, 5040, 31290, -715, 337, -190
49274, 127, 936, 188, -4340, 5250, 30380, -697, 325, -189
49275, 116, 940, 186, -4200, 5320, 29680, -708, 339, -193
49276, 95, 961, 181, -4270, 4200, 28140, -706, 330, -195
49277, 103, 966, 191, -4410, 3710, 27580, -723, 343, -193
49278, 78, 972, 181, -4480, 3920, 27230, -726, 339, -186
49279, 82, 973, 188, -4480, 4550, 27020, -714, 333, -201
49280, 60, 971, 185, -4130, 6090, 27090, -715, 330, -190
49281, 53, 973, 188, -4130, 6160, 27160, -712, 331, -196
49282, 38, 978, 183, -4340, 5390, 27300, -720, 330, -193
49283, 41, 984, 185, -4760, 4200, 27300, -717, 330, -196
49284, 46, 987, 182, -5320, 2240, 27300, -709, 325, -192
49285, 57, 979, 183, -6580, -1890, 27230, -709, 325, -195
49286, 70, 974, 178, -7140, -3710, 27160, -723, 319, -201
49287, 87, 970, 181, -7420, -4550, 27090, -723, 322, -201
49288, 99, 966, 178, -7490, -5250, 27160, -723, 316, -196
49289, 105, 967, 176, -7280, -4060, 27510, -726, 328, -207
49290, 108, 970, 170, -7000, -3150, 27650, -718, 324, -199
49291, 117, 967, 170, -6790, -2660, 27790, -732, 327, -201
49292, 127, 966, 169, -6720, -1890, 28000, -729, 319, -213
49293, 129, 965, 168, -6650, -1120, 28140, -741, 319, -199
49294, 122, 965, 166, -6790, -1120, 28350, -732, 313, -202
49295, 123, 962, 170, -7070, -2030, 28350, -739, 312, -216
49296, 124, 961, 168, -7280, -2940, 28350, -736, 321, -202
49297, 129, 964, 172, -7350, -3430, 28420, -732, 315, -210
49298, 119, 972, 168, -7490, -3920, 28630, -741, 309, -213
49299, 123, 973, 168, -8120, -5600, 29050, -735, 306, -210
49300, 127, 971, 167, -8190, -5740, 29470, -742, 309, -202
49301, 123, 970, 162, -8330, -5600, 29960, -736, 307, -213
49302, 130, 969, 170, -8330, -4900, 30520, -744, 306, -208
49303, 119, 974, 163, -8680, -5530, 31360, -736, 304, -219
49304, 146, 973, 170, -9100, -6650, 31500, -742, 312, -214
49305, 155, 964, 170, -9520, -7910, 31570, -744, 294, -211
49306, 156, 959, 168, -10150, -9800, 31570, -742, 301, -216
49307, 183, 946, 177, -10500, -11970, 31640, -751, 306, -214
49308, 191, 926, 176, -10780, -14420, 31640, -748, 297, -214
49309, 200, 941, 176, -10920, -14280, 31570, -750, 297, -211
49310, 231, 948, 183, -10920, -16310, 31220, -756, 291, -214
49311, 245, 949, 184, -10920, -15050, 31080, -751, 291, -222
49312, 299, 925, 199, -10360, -16380, 30520, -750, 285, -217
49313, 351, 891, 208, -9030, -11410, 29610, -757, 288, -222
49314, 354, 889, 209, -8540, -8260, 29050, -762, 285, -216
49315, 362, 894, 217, -7980, -8120, 28000, -742, 289, -231
49316, 353, 907, 215, -7770, -6790, 27090, -756, 283, -213
49317, 373, 910, 230, -6790, -5040, 25200, -747, 276, -220
49318, 375, 888, 242, -5880, -3920, 24430, -771, 289, -213
49319, 355, 885, 234, -5180, -1190, 23870, -765, 273, -217
49320, 372, 887, 245, -4410, -280, 22960, -759, 286, -222
49321, 355, 895, 238, -4130, 980, 22120, -756, 282, -216
49322, 376, 899, 250, -3640, 2030, 20020, -762, 280, -217
49323, 391, 892, 257, -3430, 1470, 18830, -760, 279, -219
49324, 383, 893, 253, -3150, 2520, 17780, -769, 271, -220
49325, 401, 888, 261, -2730, 1540, 16520, -759, 274, -223
49326, 394, 889, 253, -2520, 2590, 15330, -769, 276, -231
49327, 399, 892, 248, -2030, 2100, 12460, -760, 273, -222
