Time [mS], AccX [mg],AccY [mg],AccZ [mg],GyroX [mdps],GyroY [mdps],GyroZ [mdps],MagX [mgauss],MagY [mgauss],MagZ [mgauss]
57932, -114, 970, 196, 840, 770, 1540, -334, 291, -168
57933, -118, 978, 203, 2030, 280, 1470, -331, 285, -156
57934, -123, 978, 200, 840, 630, 1470, -345, 294, -168
57935, -121, 977, 201, 210, 700, 1470, -331, 288, -169
57936, -120, 976, 201, 0, 350, 1400, -343, 297, -160
57937, -116, 976, 201, -420, 140, 1400, -333, 286, -159
57938, -113, 973, 202, -350, 0, 910, -333, 297, -165
57939, -111, 970, 201, -210, 0, 630, -331, 288, -160
57940, -104, 969, 203, 0, 140, 560, -324, 289, -168
57941, -102, 971, 202, 280, 490, 980, -334, 291, -165
57942, -111, 975, 201, 0, 420, 1260, -327, 280, -171
57943, -111, 975, 199, -70, 140, 1260, -333, 289, -154
57944, -113, 974, 198, 140, -210, 1330, -336, 295, -165
57945, -111, 971, 196, 350, -630, 1190, -340, 292, -157
57946, -109, 973, 197, 210, -1190, 910, -334, 298, -163
57947, -108, 977, 195, 0, -910, 490, -343, 297, -162
57948, -102, 974, 196, -210, -630, 350, -336, 292, -162
57949, -100, 972, 196, -140, -350, 280, -337, 295, -162
57950, -94, 970, 197, -210, 70, 350, -331, 300, -169
57951, -98, 970, 199, -140, 560, 280, -336, 298, -168
57952, -109, 975, 201, -210, 1120, 210, -324, 292, -160
57953, -114, 976, 202, -70, 910, 210, -339, 292, -151
57954, -116, 975, 201, -140, 350, 280, -336, 288, -163
57955, -111, 971, 202, -280, -350, 770, -336, 295, -168
57956, -101, 968, 204, 280, -980, 2240, -336, 286, -163
57957, -94, 962, 202, 0, -1330, 4970, -331, 298, -166
57958, -119, 982, 214, 210, -770, 4550, -334, 295, -165
57959, -63, 962, 211, -1050, -1960, 9730, -342, 298, -162
57960, -111, 978, 211, -2100, -1400, 18410, -339, 295, -156
57961, -113, 978, 210, -1260, -700, 19530, -342, 291, -153
57962, -97, 971, 206, -770, 210, 10990, -346, 289, -162
57963, -86, 972, 212, -210, 1680, 6860, -349, 288, -154
57964, -74, 966, 205, 210, 3360, 2870, -345, 288, -157
57965, -88, 978, 213, 910, 5320, -210, -345, 301, -154
57966, -130, 981, 206, -70, 3430, -700, -336, 295, -154
57967, -112, 969, 213, 0, 3640, -840, -345, 295, -156
57968, -143, 970, 193, -490, 210, -1260, -339, 301, -168
57969, -112, 971, 202, -210, -2310, -1330, -342, 295, -157
57970, -76, 975, 198, -420, -3500, -1540, -337, 297, -168
57971, -80, 979, 193, -140, -1680, -1400, -340, 291, -165
57972, -75, 980, 190, -70, -770, -1400, -337, 292, -163
57973, -91, 980, 187, -70, 700, -1750, -343, 297, -162
57974, -100, 976, 186, -210, 1400, -1960, -339, 292, -159
57975, -108, 975, 186, -770, 2100, -1820, -337, 297, -163
57976, -110, 974, 188, -770, 3360, -1050, -337, 295, -162
57977, -99, 969, 189, -630, 3640, -490, -346, 297, -163
57978, -101, 973, 189, -350, 3360, -280, -334, 289, -159
57979, -100, 973, 188, 630, 840, -490, -348, 298, -157
57980, -108, 979, 198, 770, -350, -630, -336, 298, -165
57981, -117, 982, 201, 560, -1120, -840, -342, 300, -159
57982, -120, 981, 204, 280, -1120, -840, -345, 295, -160
57983, -127, 979, 202, 0, -1750, -910, -334, 297, -154
57984, -112, 974, 205, -350, -1960, -1050, -342, 294, -163
57985, -104, 973, 204, -350, -1400, -910, -342, 283, -174
57986, -98, 973, 204, -280, -910, -770, -336, 294, -166
57987, -89, 971, 204, 0, 140, -350, -327, 295, -163
57988, -89, 970, 204, 350, 1750, 70, -339, 295, -166
57989, -97, 968, 203, 840, 3500, 770, -333, 297, -162
57990, -109, 974, 203, 910, 2380, 630, -337, 294, -162
57991, -99, 973, 204, 1260, 1470, 210, -343, 297, -157
57992, -162, 988, 190, 2870, 1890, -350, -342, 303, -165
57993, -128, 988, 211, -840, 420, -1050, -348, 298, -160
57994, -112, 975, 198, -1120, -280, -910, -333, 295, -174
57995, -100, 970, 201, -910, -560, -490, -340, 294, -169
57996, -93, 967, 201, -770, 490, -70, -334, 297, -157
57997, -95, 970, 197, -280, 1610, 350, -343, 292, -162
57998, -107, 977, 198, 350, 1890, 560, -346, 292, -160
57999, -113, 977, 197, 490, 1540, 560, -345, 294, -157
58000, -118, 976, 195, 560, 910, 420, -343, 291, -160
58001, -116, 975, 195, 560, 70, 0, -331, 295, -159
58002, -111, 974, 196, 630, -420, -420, -336, 300, -159
58003, -97, 977, 197, 140, -210, -140, -334, 294, -168
58004, -92, 976, 199, 0, 70, 140, -339, 306, -159
58005, -96, 974, 195, -140, 210, 210, -334, 294, -166
58006, -104, 978, 199, -280, 350, 140, -336, 297, -160
58007, -104, 976, 199, -770, 1400, 280, -336, 291, -165
58008, -103, 971, 199, -700, 1190, 350, -339, 301, -160
58009, -100, 970, 198, -280, 210, 280, -346, 295, -165
58010, -96, 969, 200, 70, -280, 350, -343, 295, -163
58011, -97, 970, 200, 210, -350, 280, -339, 306, -151
58012, -100, 978, 201, 70, 0, 70, -339, 295, -163
58013, -99, 977, 203, -70, 140, 0, -340, 297, -160
58014, -101, 976, 200, -210, 350, -70, -336, 297, -160
58015, -98, 974, 204, -280, -140, -210, -339, 292, -162
58016, -102, 972, 202, -210, 210, -210, -331, 298, -172
58017, -102, 973, 202, -140, 140, -350, -333, 306, -163
58018, -99, 974, 203, -70, 770, -280, -342, 294, -162
58019, -100, 974, 201, 70, 1470, -210, -333, 291, -163
58020, -100, 972, 200, 210, 1750, -70, -343, 289, -163
58021, -101, 972, 202, 420, 1890, 0, -342, 286, -171
58022, -104, 975, 200, 350, 1890, 70, -346, 292, -159
58023, -105, 976, 201, 280, 1680, 70, -333, 298, -162
58024, -108, 978, 201, 140, 1540, -70, -343, 298, -168
58025, -107, 976, 201, 0, 1330, -70, -336, 292, -159
58026, -105, 973, 199, 0, 490, -210, -336, 298, -154
58027, -106, 973, 200, 0, 280, -280, -340, 291, -162
58028, -105, 974, 201, 0, 0, -280, -351, 301, -160
58029, -103, 976, 202, -210, 140, -280, -328, 292, -166
58030, -101, 976, 203, -280, 490, -280, -328, 300, -160
58031, -99, 972, 201, -280, 420, -350, -337, 292, -171
58032, -105, 972, 196, -140, 70, -490, -337, 294, -168
58033, -90, 974, 214, 210, -1400, -700, -336, 291, -162
58034, -108, 970, 190, -210, 1540, -420, -346, 297, -163
58035, -96, 973, 199, 350, 560, -490, -333, 301, -163
58036, -99, 973, 198, 280, 0, -630, -333, 289, -163
58037, -101, 974, 199, 350, -140, -770, -337, 291, -160
58038, -106, 975, 198, 210, -280, -840, -340, 298, -162
58039, -105, 976, 199, 140, -490, -980, -328, 297, -153
58040, -102, 975, 198, -70, -770, -1050, -343, 295, -162
58041, -103, 974, 197, -70, -630, -1120, -337, 292, -162
58042, -103, 973, 198, -70, -420, -1190, -340, 297, -163
58043, -102, 974, 198, 0, 0, -1120, -339, 298, -153
58044, -104, 974, 199, 0, 700, -1050, -342, 294, -159
58045, -105, 975, 200, 0, 1540, -910, -340, 294, -163
58046, -106, 973, 200, 140, 1750, -770, -336, 288, -165
58047, -107, 972, 199, 210, 1540, -700, -337, 295, -159
58048, -110, 971, 200, 350, 1400, -630, -336, 289, -156
58049, -116, 976, 201, 350, 1190, -630, -346, 295, -165
58050, -118, 977, 202, 280, 910, -630, -337, 297, -159
58051, -117, 976, 202, 210, 630, -560, -336, 297, -156
58052, -116, 977, 202, 70, 490, -490, -334, 297, -165
58053, -115, 975, 201, 70, 560, -420, -340, 300, -165
58054, -110, 974, 202, -140, 630, -280, -334, 297, -154
58055, -109, 975, 203, -70, 490, -280, -342, 292, -153
58056, -109, 974, 202, 0, 490, -350, -337, 295, -168
58057, -109, 972, 199, 70, 280, -350, -348, 304, -154
58058, -106, 971, 199, 140, 140, -420, -340, 286, -159
58059, -101, 973, 199, 350, -210, -490, -339, 291, -145
58060, -100, 974, 200, 350, -350, -560, -327, 283, -159
58061, -101, 976, 199, 350, -490, -700, -340, 297, -150
58062, -101, 976, 198, 210, -560, -910, -339, 289, -156
58063, -100, 973, 197, 70, -910, -1400, -339, 288, -150
58064, -97, 971, 196, 70, -1400, -1610, -346, 300, -159
58065, -94, 972, 198, 70, -1540, -1820, -340, 288, -157
58066, -90, 971, 198, 210, -1190, -1890, -336, 283, -150
58067, -89, 971, 198, 280, -980, -1890, -340, 297, -157
58068, -89, 972, 200, 350, -630, -2100, -337, 288, -160
58069, -90, 972, 200, 280, -210, -2240, -330, 289, -159
58070, -94, 972, 200, -140, 980, -2240, -337, 297, -162
58071, -95, 971, 203, 70, 70, -2520, -342, 294, -151
58072, -95, 972, 202, 70, 210, -2730, -339, 288, -156
58073, -102, 971, 204, -70, -70, -3010, -343, 292, -154
58074, -104, 968, 201, -350, 1190, -2940, -336, 294, -157
58075, -97, 975, 216, 0, -980, -3290, -337, 289, -156
58076, -104, 965, 200, -420, -910, -3500, -336, 291, -168
58077, -105, 969, 213, -630, -1190, -4340, -336, 297, -154
58078, -109, 974, 213, -910, -1330, -4900, -331, 291, -159
58079, -107, 973, 210, -1330, -1610, -5740, -327, 291, -157
58080, -106, 970, 206, -1050, -1680, -5530, -339, 289, -160
58081, -110, 969, 207, -770, -1330, -5460, -330, 291, -159
58082, -104, 981, 218, -980, 140, -5880, -342, 291, -156
58083, -109, 992, 226, -4060, 2170, -9730, -340, 306, -156
58084, -130, 995, 214, -6860, 4830, -15820, -337, 285, -169
58085, -78, 942, 184, -6650, 6790, -21070, -337, 279, -171
58086, -81, 970, 215, -4760, 12670, -22330, -331, 285, -166
58087, -38, 878, 168, 1540, 910, -11200, -342, 286, -172
58088, -130, 970, 189, 1120, 1890, -5460, -327, 280, -168
58089, -115, 972, 201, 1050, 1610, -5670, -334, 286, -168
58090, -127, 972, 194, 980, 1680, -5880, -333, 288, -163
58091, -118, 971, 190, 980, 910, -6300, -331, 292, -159
58092, -117, 969, 189, 980, 1190, -6440, -330, 285, -172
58093, -116, 966, 189, 1120, 1260, -6580, -321, 277, -175
58094, -117, 968, 190, 1120, 1540, -6720, -330, 285, -168
58095, -118, 970, 191, 1190, 1750, -6930, -325, 280, -157
58096, -122, 968, 195, 1190, 1680, -7420, -324, 286, -160
58097, -123, 966, 196, 1260, 1470, -7770, -333, 280, -166
58098, -122, 965, 198, 1330, 1330, -7980, -333, 271, -157
58099, -124, 964, 199, 1330, 1330, -8190, -327, 288, -163
58100, -126, 963, 201, 1540, 1680, -8540, -331, 286, -169
58101, -136, 966, 206, 1610, 1960, -8610, -322, 280, -169
58102, -145, 966, 207, 1610, 2030, -8750, -327, 288, -177
58103, -149, 967, 206, 1610, 1960, -8750, -337, 286, -168
58104, -159, 967, 211, 1540, 1820, -8820, -325, 283, -166
58105, -163, 977, 185, 1330, 1610, -8820, -327, 277, -162
58106, -154, 972, 190, 1400, 1540, -8820, -331, 283, -169
58107, -173, 965, 194, 1260, 1540, -8750, -322, 283, -172
58108, -169, 963, 192, 1190, 1540, -8610, -334, 280, -174
58109, -165, 963, 185, 1260, 1050, -8610, -324, 273, -162
58110, -154, 962, 193, 1400, 560, -8680, -321, 276, -162
58111, -150, 961, 199, 1470, 420, -8890, -321, 280, -172
58112, -136, 960, 209, 1540, 490, -9170, -325, 280, -165
58113, -126, 961, 213, 1540, 700, -9520, -321, 277, -162
58114, -114, 962, 215, 1540, 1750, -10220, -319, 277, -171
58115, -262, 987, 161, 980, 840, -10010, -316, 282, -169
58116, -176, 963, 206, 1190, 1190, -10920, -319, 276, -169
58117, -336, 1021, 137, 770, 560, -8470, -316, 268, -166
58118, -328, 1003, 165, 1610, 3010, -7420, -316, 274, -165
58119, -243, 954, 167, 630, 1960, -3430, -318, 274, -180
58120, -287, 931, 137, -630, -2310, -1750, -315, 279, -168
58121, -187, 886, 163, -840, -3640, -1050, -321, 270, -163
58122, -343, 940, 159, -140, -2240, -1050, -319, 279, -159
58123, -220, 969, 228, 630, -3010, -1120, -316, 283, -163
58124, -151, 1013, 264, 350, -8540, -1120, -328, 274, -172
58125, -213, 992, 248, -630, -12320, -1260, -319, 273, -157
58126, -152, 936, 265, -1400, -14140, -1260, -328, 277, -172
58127, -218, 938, 251, -1820, -12670, -1610, -322, 277, -168
58128, -133, 936, 254, -1400, -5740, -1330, -322, 274, -175
58129, -131, 977, 251, -840, -2380, -350, -318, 271, -178
58130, -194, 977, 223, -140, 910, 910, -328, 277, -171
58131, -200, 951, 205, 350, 3360, 2310, -315, 276, -166
58132, -289, 951, 173, 560, 4900, 3430, -321, 282, -174
58133, -338, 985, 159, -140, 2940, 5040, -319, 271, -177
58134, -301, 992, 171, -980, -490, 5810, -321, 277, -168
58135, -294, 991, 178, -1470, -4130, 6510, -324, 279, -177
58136, -245, 977, 190, -1750, -6580, 7350, -324, 274, -169
58137, -230, 960, 198, -1680, -7420, 7840, -324, 268, -175
58138, -123, 938, 247, -1120, -9730, 6580, -322, 285, -172
58139, -75, 955, 252, -1470, -12880, 5180, -331, 277, -183
58140, -102, 989, 217, -1960, -13090, 3430, -327, 270, -168
58141, -54, 993, 203, -2660, -12460, 2590, -322, 273, -174
58142, -31, 941, 210, -2660, -9310, 1820, -315, 276, -174
58143, -68, 915, 210, -1750, -7210, 1470, -322, 282, -178
58144, -73, 918, 201, -560, -4550, 1050, -321, 270, -178
58145, -89, 940, 190, 560, -1540, 420, -322, 282, -172
58146, -90, 962, 181, 1190, 350, -280, -327, 276, -174
58147, -108, 985, 163, 560, 1470, -1400, -322, 282, -180
58148, -140, 1005, 151, -140, 2310, -1120, -322, 283, -178
58149, -172, 1007, 144, -280, 4410, -490, -318, 270, -178
58150, -234, 995, 142, -70, 6580, 770, -318, 271, -187
58151, -275, 985, 138, 420, 8680, 1960, -322, 279, -174
58152, -332, 977, 134, 910, 7140, 4480, -321, 277, -171
58153, -350, 980, 138, 280, 3570, 5670, -322, 279, -169
58154, -350, 996, 148, -560, -770, 6650, -325, 277, -178
58155, -335, 1011, 160, -1610, -4480, 7630, -330, 282, -175
58156, -267, 1001, 189, -2870, -7350, 10010, -334, 267, -178
58157, -245, 975, 200, -2870, -6650, 11340, -328, 280, -177
58158, -236, 957, 207, -2520, -4970, 12880, -322, 279, -177
58159, -228, 947, 216, -2100, -2800, 14280, -330, 280, -169
58160, -237, 954, 216, -1820, -980, 15680, -324, 282, -169
58161, -260, 988, 223, -2030, 210, 17990, -333, 291, -165
58162, -252, 988, 228, -2590, -1050, 18970, -325, 286, -169
58163, -243, 978, 231, -3220, -3220, 19810, -327, 274, -171
58164, -225, 958, 238, -3500, -5390, 20440, -328, 277, -174
58165, -199, 948, 241, -3640, -6860, 20790, -327, 285, -174
58166, -153, 936, 248, -3360, -7980, 21210, -333, 286, -175
58167, -134, 940, 251, -3220, -8330, 21210, -337, 282, -165
58168, -96, 946, 255, -3150, -8120, 21210, -337, 289, -178
58169, -73, 957, 254, -3010, -6790, 21140, -340, 288, -172
58170, -37, 983, 241, -2870, -1890, 21280, -340, 288, -178
58171, -36, 982, 231, -2660, 980, 21140, -333, 289, -177
58172, -54, 966, 223, -2450, 3220, 21000, -340, 291, -175
58173, -59, 953, 214, -2240, 4270, 20650, -333, 297, -178
58174, -74, 952, 207, -2100, 4130, 20370, -331, 294, -172
58175, -90, 973, 191, -2030, 1680, 19320, -340, 291, -162
58176, -83, 986, 187, -2240, -140, 18690, -339, 297, -171
58177, -72, 990, 183, -2590, -2240, 17920, -345, 294, -169
58178, -52, 984, 182, -2940, -3920, 17220, -349, 301, -163
58179, -36, 976, 179, -3080, -4830, 16590, -352, 310, -175
58180, -15, 963, 177, -2730, -3150, 15540, -342, 300, -177
58181, -14, 971, 175, -2450, -1750, 15190, -343, 297, -165
58182, -30, 974, 173, -2310, -700, 14980, -348, 297, -172
58183, -45, 979, 169, -2100, -490, 14630, -349, 309, -163
58184, -71, 989, 176, -2450, -2800, 13860, -349, 298, -172
58185, -73, 972, 183, -2660, -4270, 13580, -346, 304, -168
58186, -62, 964, 192, -2800, -5180, 13090, -346, 303, -174
58187, -44, 974, 197, -2800, -5810, 12950, -351, 304, -171
58188, -33, 982, 205, -2730, -5390, 12740, -355, 303, -177
58189, -29, 978, 216, -2520, -3570, 12670, -351, 301, -178
58190, -32, 973, 218, -2450, -2940, 12600, -352, 295, -174
58191, -38, 962, 224, -2380, -2660, 12530, -360, 301, -168
58192, -37, 955, 230, -2310, -2800, 12390, -346, 306, -171
58193, -30, 955, 239, -2310, -3220, 11690, -360, 306, -175
58194, -5, 967, 248, -2030, -3220, 11270, -349, 301, -171
58195, 2, 967, 249, -1960, -2870, 10850, -360, 307, -175
58196, 9, 965, 249, -1960, -2310, 10430, -355, 306, -175
58197, 12, 963, 249, -1890, -1820, 10010, -357, 300, -183
58198, 11, 956, 253, -1680, -1260, 8960, -357, 306, -169
58199, 13, 947, 257, -1540, -1190, 8470, -363, 309, -172
58200, 17, 946, 257, -1260, -980, 7840, -357, 306, -171
58201, 32, 948, 259, -1050, -770, 7140, -361, 304, -171
58202, 39, 953, 258, -840, -420, 6510, -363, 310, -171
58203, 51, 959, 253, -630, 350, 4970, -355, 310, -171
58204, 55, 959, 249, -630, 700, 4060, -358, 306, -175
58205, 57, 955, 246, -490, 1050, 3150, -351, 306, -169
58206, 66, 951, 245, -210, 1260, 2170, -360, 315, -178
58207, 69, 949, 245, 350, 1400, 0, -364, 306, -175
58208, 79, 955, 246, 630, 1680, -1190, -358, 313, -175
58209, 80, 959, 245, 840, 2170, -2450, -361, 303, -169
58210, 74, 965, 243, 1050, 2520, -3640, -360, 313, -175
58211, 65, 970, 237, 1050, 2730, -4830, -352, 309, -168
58212, 34, 961, 227, 980, 2660, -6650, -352, 309, -169
58213, 14, 952, 223, 1120, 2800, -7280, -361, 310, -174
58214, 3, 950, 220, 1400, 3360, -7700, -361, 315, -174
58215, -4, 958, 215, 1750, 3850, -7910, -363, 309, -183
58216, -14, 970, 209, 1960, 4200, -8050, -358, 307, -177
58217, -50, 1004, 188, 1750, 4550, -8190, -364, 309, -171
58218, -67, 1011, 178, 1400, 4760, -8050, -357, 316, -174
58219, -80, 1007, 168, 1190, 4830, -7770, -358, 306, -177
58220, -94, 1003, 154, 910, 4690, -7210, -360, 304, -174
58221, -116, 997, 145, 630, 4200, -5600, -349, 306, -175
58222, -151, 973, 148, 770, 4340, -4620, -360, 307, -175
58223, -152, 960, 162, 1050, 3990, -3500, -357, 312, -165
58224, -151, 964, 178, 1260, 3150, -2660, -364, 303, -174
58225, -150, 987, 190, 1120, 1750, -1820, -358, 310, -169
58226, -122, 1018, 213, 140, -1400, -840, -352, 306, -172
58227, -100, 1013, 224, -490, -2380, -560, -345, 310, -178
58228, -76, 993, 232, -980, -2870, -70, -352, 313, -172
58229, -62, 963, 242, -980, -2310, 350, -357, 304, -172
58230, -56, 945, 249, -700, -1260, 770, -361, 307, -166
58231, -61, 959, 254, 140, 1400, 1610, -363, 301, -169
58232, -73, 978, 252, 350, 2100, 1890, -361, 309, -175
58233, -87, 991, 246, 140, 1960, 2240, -354, 316, -183
58234, -97, 992, 242, -210, 1400, 2450, -358, 304, -166
58235, -99, 986, 240, -1050, -70, 3220, -363, 303, -172
58236, -105, 960, 244, -1050, -420, 3780, -357, 301, -165
58237, -102, 954, 246, -770, -350, 4410, -358, 301, -175
58238, -101, 953, 249, -490, -560, 4900, -355, 310, -169
58239, -86, 955, 254, -280, -910, 5110, -355, 301, -174
58240, -54, 974, 257, -490, -2310, 5390, -360, 316, -165
58241, -38, 979, 254, -840, -2800, 5320, -352, 298, -165
58242, -17, 978, 255, -980, -2590, 5180, -357, 310, -163
58243, 0, 971, 256, -1190, -2170, 5040, -360, 315, -174
58244, 10, 956, 254, -1050, -1120, 4760, -363, 310, -178
58245, 15, 954, 246, -350, 350, 3920, -357, 313, -168
58246, 13, 959, 241, -140, 420, 3360, -370, 310, -168
58247, 14, 965, 236, 0, 350, 2730, -361, 319, -168
58248, 16, 970, 235, 70, 70, 2030, -360, 310, -163
58249, 17, 970, 229, 0, 70, 910, -367, 310, -166
58250, 14, 968, 223, 70, 700, 420, -354, 306, -172
58251, 14, 969, 219, 140, 1260, 70, -361, 313, -172
58252, 9, 971, 214, 280, 1960, -350, -352, 312, -172
58253, 1, 973, 208, 420, 2520, -630, -366, 303, -165
58254, -27, 987, 189, 490, 3150, -1050, -361, 315, -172
58255, -51, 999, 175, 420, 3500, -910, -366, 315, -171
58256, -78, 1006, 163, 210, 3990, -350, -357, 310, -175
58257, -111, 1003, 153, 70, 5110, 630, -363, 316, -168
58258, -134, 987, 155, 70, 6020, 1820, -358, 312, -177
58259, -153, 963, 178, 420, 4410, 3500, -361, 309, -171
58260, -150, 979, 186, 490, 1820, 3850, -361, 307, -177
58261, -129, 1002, 195, 70, -1610, 4060, -360, 306, -172
58262, -102, 1017, 201, -630, -4690, 4130, -354, 306, -169
58263, -35, 988, 223, -2100, -7210, 4410, -366, 313, -163
58264, -6, 964, 234, -2240, -6230, 4620, -366, 316, -172
58265, 4, 952, 241, -1680, -3850, 4900, -364, 316, -165
58266, 6, 949, 246, -1050, -1190, 5250, -360, 321, -172
58267, -10, 957, 244, -350, 1330, 5460, -361, 316, -171
58268, -48, 985, 232, -210, 2870, 5880, -352, 315, -174
58269, -61, 990, 228, -700, 1960, 5880, -364, 303, -165
58270, -69, 986, 227, -1260, 560, 5880, -361, 309, -169
58271, -67, 978, 226, -1540, -840, 5950, -357, 309, -171
58272, -65, 971, 226, -1610, -1610, 6160, -360, 315, -174
58273, -62, 965, 228, -980, -1120, 7000, -363, 304, -168
58274, -66, 973, 225, -770, -770, 7560, -352, 312, -169
58275, -68, 984, 222, -910, -910, 7910, -366, 316, -169
58276, -62, 988, 223, -1190, -1610, 8190, -363, 307, -169
58277, -36, 979, 228, -1960, -3430, 8400, -357, 313, -160
58278, -22, 972, 231, -2030, -3710, 8470, -367, 309, -165
58279, -7, 964, 232, -1890, -3500, 8540, -367, 321, -159
58280, -2, 961, 232, -1540, -2800, 8610, -363, 315, -163
58281, 4, 963, 231, -1400, -2030, 8610, -364, 325, -169
58282, 0, 976, 229, -1260, -1260, 8540, -370, 319, -171
58283, -5, 982, 228, -1400, -1400, 8400, -372, 315, -163
58284, -3, 980, 229, -1470, -1750, 8260, -369, 315, -180
58285, -2, 974, 227, -1540, -2030, 8050, -363, 315, -165
58286, 3, 965, 230, -1540, -2170, 7910, -358, 324, -172
58287, 13, 960, 234, -1190, -2380, 7630, -372, 300, -177
58288, 18, 964, 236, -1190, -2450, 7350, -363, 319, -169
58289, 28, 968, 238, -1190, -2730, 6930, -376, 322, -166
58290, 35, 970, 240, -1190, -2800, 6580, -367, 316, -160
58291, 47, 967, 241, -1190, -2800, 5740, -378, 319, -171
58292, 52, 966, 241, -1050, -2170, 5390, -372, 316, -174
58293, 53, 965, 242, -910, -1330, 5110, -382, 321, -175
58294, 47, 965, 241, -770, -280, 4830, -373, 313, -165
58295, 36, 967, 236, -630, 630, 4620, -378, 324, -172
58296, 15, 973, 230, -560, 420, 4060, -381, 319, -172
58297, 10, 969, 224, -560, -70, 3850, -376, 321, -165
58298, 12, 970, 225, -630, -280, 3640, -367, 316, -168
58299, 12, 972, 222, -700, -700, 3500, -379, 327, -174
58300, 29, 972, 221, -700, -560, 3290, -372, 321, -177
58301, 30, 970, 221, -560, -420, 3010, -375, 322, -169
58302, 22, 970, 219, -490, -350, 2940, -370, 321, -175
58303, 30, 970, 221, -350, -210, 2660, -369, 330, -168
58304, 25, 974, 219, -280, -140, 2520, -379, 321, -174
58305, 26, 976, 220, -210, 70, 2170, -372, 327, -177
58306, 29, 975, 223, -350, 140, 2030, -372, 322, -171
58307, 21, 971, 223, -350, 70, 1890, -378, 322, -178
58308, 24, 970, 225, -280, -140, 1680, -372, 322, -169
58309, 25, 969, 227, -210, -350, 1400, -375, 319, -171
58310, 37, 968, 234, -140, -560, 840, -369, 324, -168
58311, 44, 967, 238, -70, -630, 490, -372, 316, -174
58312, 46, 966, 238, 0, -560, 210, -372, 330, -169
58313, 50, 966, 238, 0, -140, -140, -369, 322, -174
58314, 50, 967, 237, 70, 490, -840, -376, 327, -183
58315, 53, 969, 237, 0, 560, -1260, -376, 321, -175
58316, 59, 970, 236, 140, 490, -1750, -369, 319, -166
58317, 63, 968, 231, 210, 490, -2310, -381, 324, -165
58318, 69, 963, 225, 280, 840, -2870, -379, 328, -166
58319, 71, 969, 214, 490, 1330, -4060, -378, 307, -174
58320, 75, 975, 211, 420, 1330, -4690, -373, 315, -171
58321, 77, 975, 213, 420, 1120, -5530, -366, 322, -175
58322, 78, 964, 217, 700, 1190, -6370, -372, 324, -175
58323, 78, 954, 221, 980, 1120, -7140, -372, 315, -172
58324, 77, 958, 223, 1610, 1470, -8680, -366, 325, -181
58325, 85, 966, 227, 1680, 1540, -9520, -363, 316, -174
58326, 79, 972, 228, 1610, 1750, -10360, -379, 318, -169
58327, 83, 971, 231, 1610, 1960, -11200, -372, 316, -174
58328, 79, 967, 234, 1820, 2730, -12810, -369, 322, -168
58329, 71, 949, 240, 2100, 3010, -13650, -366, 316, -172
58330, 72, 945, 242, 2450, 3150, -14490, -369, 319, -180
58331, 65, 950, 242, 2730, 3150, -15330, -370, 312, -181
58332, 68, 957, 242, 2800, 3220, -16240, -372, 316, -165
58333, 70, 962, 244, 2870, 3360, -18060, -375, 316, -171
58334, 68, 959, 244, 2940, 3640, -18970, -354, 315, -168
58335, 71, 953, 246, 3080, 3920, -19880, -366, 318, -168
58336, 65, 946, 245, 3220, 4340, -20790, -361, 321, -177
58337, 63, 943, 248, 3640, 4760, -21700, -355, 321, -169
58338, 56, 948, 245, 4130, 5110, -23660, -360, 315, -181
58339, 55, 954, 242, 4270, 5110, -24710, -367, 304, -177
58340, 216, 995, 207, 5390, 15680, -24920, -352, 312, -166
58341, 277, 943, 255, 6230, 23800, -23100, -355, 310, -175
58342, 0, 940, 231, 8050, 34300, -22960, -360, 303, -175
58343, -87, 899, 251, 8750, 29680, -25200, -349, 304, -162
58344, -166, 944, 206, 8260, 21630, -26460, -351, 300, -171
58345, -116, 992, 199, 7630, 12110, -29050, -355, 307, -172
58346, -28, 1013, 224, 6160, 5040, -29890, -351, 301, -165
58347, 340, 1110, 132, 7140, 33390, -23310, -337, 297, -163
58348, 73, 1132, 148, 10850, 88550, -10920, -343, 295, -159
58349, -105, 847, 29, 14630, 115290, -4200, -337, 303, -150
58350, -373, 782, 196, 19460, 123900, -5320, -345, 304, -145
58351, -430, 748, 205, 21560, 120470, -6090, -339, 301, -129
58352, -473, 1036, 153, 18550, 73710, -9450, -340, 297, -130
58353, -539, 1149, 128, 13650, 51870, -9940, -348, 303, -126
58354, -392, 1197, 94, 7070, 22470, -10220, -331, 301, -124
58355, 11, 1146, 148, 3220, 18340, -9800, -339, 295, -123
58356, -4, 1095, 171, 3710, 37940, -7140, -337, 289, -124
58357, -270, 863, 194, 5880, 38710, -5250, -342, 297, -121
58358, -343, 783, 189, 8260, 37940, -3640, -331, 292, -118
58359, -476, 862, 130, 9310, 32620, -2450, -339, 297, -114
58360, -538, 987, 98, 7980, 21350, -1960, -340, 298, -114
58361, -522, 1168, 128, -1050, -19880, -3290, -334, 298, -111
58362, -376, 1168, 157, -5950, -37800, -3780, -333, 294, -115
58363, -229, 1097, 182, -8820, -48230, -3780, -337, 294, -124
58364, -188, 972, 200, -9590, -51800, -3150, -333, 295, -115
58365, -179, 876, 206, -8680, -51520, -2310, -339, 295, -130
58366, -182, 906, 200, -5530, -46690, -700, -331, 297, -133
58367, -163, 967, 206, -4900, -45080, -70, -339, 286, -130
58368, -124, 1015, 203, -5110, -43540, 490, -337, 297, -129
58369, -86, 1038, 217, -6230, -43470, 700, -336, 295, -135
58370, 0, 983, 217, -7490, -37240, 1120, -327, 295, -139
58371, -9, 928, 226, -6790, -31710, 1470, -342, 294, -135
58372, -19, 899, 227, -5320, -26250, 1960, -339, 291, -144
58373, -39, 910, 223, -3570, -20720, 2520, -339, 300, -148
58374, -33, 926, 222, -1960, -15400, 2940, -343, 297, -147
58375, -75, 1005, 203, -1050, -11270, 2800, -342, 294, -153
58376, -36, 1006, 205, -1750, -10850, 2730, -342, 297, -142
58377, -75, 1018, 196, -2520, -11200, 1820, -342, 292, -153
58378, -54, 997, 201, -3220, -13090, 1400, -342, 294, -151
58379, -51, 960, 204, -3080, -11970, 770, -342, 303, -148
58380, -41, 934, 206, -1540, -9030, 350, -343, 294, -148
58381, -24, 932, 202, -630, -7140, 350, -339, 297, -153
58382, -39, 954, 195, 210, -4060, 0, -343, 294, -157
58383, -27, 976, 195, 280, -2660, -280, -342, 306, -145
58384, -17, 998, 188, -70, 910, -630, -346, 297, -153
58385, -45, 986, 179, 70, 4270, -700, -337, 304, -153
58386, -59, 960, 183, 350, 6930, -420, -336, 295, -150
58387, -115, 954, 176, 1050, 9660, -210, -337, 295, -147
58388, -143, 951, 180, 1540, 9800, 420, -339, 291, -148
58389, -236, 994, 172, 1260, 4550, 1050, -339, 298, -144
58390, -275, 1026, 164, 490, -350, 1050, -346, 300, -141
58391, -243, 1028, 173, -840, -6160, 1050, -352, 298, -147
58392, -207, 1017, 176, -1820, -10500, 700, -343, 300, -139
58393, -135, 986, 194, -2730, -14420, 350, -334, 295, -163
58394, -55, 945, 210, -2870, -17710, -140, -342, 291, -165
58395, -54, 945, 211, -2450, -17710, -350, -348, 289, -160
58396, -52, 952, 213, -2100, -17220, -420, -346, 288, -147
58397, -73, 971, 212, -1750, -16030, -630, -339, 297, -153
58398, -124, 988, 216, -2100, -16100, -1190, -339, 298, -156
58399, -141, 985, 217, -2520, -18060, -1330, -342, 297, -169
58400, -158, 980, 217, -3010, -20720, -1540, -345, 295, -160
58401, -167, 977, 218, -3500, -24010, -1540, -346, 297, -169
58402, -177, 971, 220, -3850, -27230, -1610, -339, 291, -163
58403, -148, 975, 222, -4410, -32130, -1820, -342, 309, -163
58404, -122, 978, 223, -4620, -33180, -1820, -345, 297, -168
58405, -93, 973, 226, -4830, -33320, -1750, -345, 295, -160
58406, -75, 969, 229, -4830, -32410, -1540, -337, 298, -171
58407, -67, 960, 234, -4480, -30380, -1120, -343, 294, -169
58408, -61, 951, 241, -3430, -25200, -280, -340, 295, -175
58409, -56, 955, 241, -2870, -22330, 140, -340, 297, -190
58410, -55, 959, 242, -2450, -19320, 560, -345, 304, -177
58411, -52, 969, 239, -2100, -16380, 980, -339, 289, -178
58412, -55, 973, 238, -1610, -10150, 1890, -340, 294, -183
58413, -62, 963, 239, -1330, -7280, 2450, -346, 294, -181
58414, -63, 956, 239, -910, -4340, 3010, -339, 291, -181
58415, -60, 951, 239, -280, -770, 3500, -340, 295, -175
58416, -58, 952, 238, 490, 3010, 4130, -342, 292, -177
58417, -66, 963, 233, 1470, 9520, 5320, -339, 298, -180
58418, -86, 971, 229, 1750, 11550, 5740, -342, 298, -183
58419, -111, 979, 227, 1680, 12040, 5950, -346, 295, -178
58420, -128, 979, 227, 1470, 11200, 6090, -336, 289, -178
58421, -139, 981, 227, 1050, 6930, 6090, -339, 298, -175
58422, -159, 981, 227, 210, 3780, 6090, -346, 298, -171
58423, -172, 975, 226, -280, 0, 6020, -339, 298, -178
58424, -182, 974, 225, -700, -4060, 5950, -349, 297, -177
58425, -185, 978, 226, -1260, -8330, 5880, -351, 288, -181
58426, -171, 980, 233, -2450, -17080, 5600, -342, 304, -169
58427, -161, 980, 236, -3080, -21420, 5320, -351, 306, -184
58428, -152, 981, 238, -3780, -25760, 5110, -355, 298, -172
58429, -141, 976, 241, -4340, -30030, 4760, -348, 307, -175
58430, -128, 969, 245, -4900, -33950, 4550, -345, 294, -183
58431, -102, 961, 255, -5600, -39690, 3850, -355, 289, -187
58432, -98, 956, 260, -5670, -41440, 3640, -348, 303, -192
58433, -96, 954, 261, -5810, -43610, 3360, -345, 300, -195
58434, -80, 953, 265, -6020, -45920, 2870, -348, 298, -195
58435, -55, 957, 271, -6160, -47740, 1890, -351, 306, -201
58436, -10, 961, 277, -6160, -47320, 1540, -357, 300, -205
58437, 12, 958, 280, -6090, -45920, 1330, -351, 300, -199
58438, 34, 952, 285, -5670, -43190, 1260, -355, 303, -198
58439, 52, 945, 293, -5040, -38990, 1330, -354, 300, -207
58440, 35, 929, 300, -3360, -29120, 1680, -348, 309, -208
58441, 28, 930, 303, -2520, -25200, 1820, -349, 298, -210
58442, 31, 934, 304, -1680, -21000, 1960, -361, 297, -208
58443, 33, 939, 305, -910, -16030, 2240, -357, 303, -204
58444, 23, 945, 309, -280, -11130, 2520, -351, 291, -214
58445, 0, 952, 312, 490, -4620, 2940, -355, 312, -210
58446, -6, 952, 317, 630, -2800, 3010, -357, 300, -211
58447, -16, 946, 317, 840, -1820, 2940, -358, 304, -213
58448, -29, 938, 322, 980, -1540, 2730, -367, 307, -213
58449, -37, 930, 324, 1540, -1890, 2450, -352, 306, -214
58450, -30, 927, 335, 1680, -1750, 2310, -369, 291, -210
58451, -18, 930, 340, 2100, -770, 2240, -369, 310, -211
58452, -7, 930, 343, 2450, 980, 2310, -355, 300, -207
58453, -6, 934, 345, 2800, 2870, 2310, -363, 300, -208
58454, -6, 935, 354, 3150, 5670, 2310, -358, 300, -208
58455, -8, 930, 352, 3360, 6510, 2170, -363, 306, -210
58456, -16, 917, 352, 3640, 7140, 2030, -363, 304, -217
58457, -24, 909, 350, 3990, 7700, 1960, -363, 304, -204
58458, -26, 906, 351, 4410, 8120, 1820, -360, 301, -213
58459, -20, 914, 355, 5320, 9660, 1540, -351, 306, -213
58460, -26, 929, 348, 5600, 10150, 1470, -357, 301, -207
58461, -37, 952, 344, 5740, 9870, 1330, -357, 301, -195
58462, -61, 965, 345, 5530, 8680, 1050, -358, 301, -205
58463, -62, 954, 341, 4830, 5530, 560, -363, 301, -210
58464, -28, 926, 336, 4760, 5600, 560, -361, 297, -201
58465, -25, 913, 332, 4900, 6860, 700, -352, 301, -201
58466, -32, 916, 317, 5110, 7980, 910, -352, 292, -201
58467, -37, 934, 315, 5110, 8680, 980, -363, 295, -205
58468, -74, 984, 308, 4340, 7420, 840, -355, 298, -205
58469, -104, 1006, 306, 3500, 4410, 490, -361, 312, -199
58470, -112, 1006, 306, 2240, -630, -210, -360, 306, -195
58471, -74, 992, 303, 1120, -4620, -910, -360, 306, -208
58472, -52, 968, 306, 490, -6020, -1120, -357, 294, -202
58473, -29, 943, 292, 70, -5460, -840, -355, 310, -199
58474, -12, 968, 293, 210, -4200, -560, -361, 304, -198
58475, -24, 983, 294, 210, -2380, -420, -354, 304, -204
58476, -39, 984, 291, -70, -1190, -210, -354, 303, -199
58477, -48, 1018, 272, 280, -140, 210, -355, 306, -205
58478, -16, 1043, 257, 1050, 1470, 490, -361, 304, -198
58479, -16, 1067, 239, 2310, 3080, 770, -363, 297, -198
58480, -29, 1072, 217, 3640, 3780, 910, -355, 292, -193
58481, -57, 1059, 184, 4480, 3010, 980, -366, 300, -190
58482, -134, 979, 141, 3710, -5110, 280, -354, 295, -198
58483, -159, 978, 135, 2030, -11480, -280, -357, 295, -202
58484, -159, 1001, 138, -70, -18340, -840, -358, 301, -202
58485, -134, 1025, 139, -2310, -24570, -1190, -352, 295, -190
58486, -110, 1026, 158, -4270, -28770, -1400, -357, 294, -199
58487, -89, 995, 193, -6580, -31780, -1470, -361, 301, -205
58488, -82, 993, 210, -6930, -31500, -1190, -357, 295, -207
58489, -70, 999, 212, -6930, -30380, -840, -355, 295, -213
58490, -61, 990, 223, -6790, -28770, -420, -354, 303, -214
58491, -59, 975, 219, -6370, -25270, 420, -358, 300, -216
58492, -61, 989, 214, -6370, -24150, 840, -361, 301, -223
58493, -74, 1009, 201, -6580, -23870, 1330, -358, 298, -222
58494, -110, 1017, 197, -7070, -25200, 1680, -357, 303, -223
58495, -139, 1028, 189, -8050, -28980, 1680, -369, 310, -219
58496, -146, 1029, 206, -10360, -37940, 1540, -360, 294, -223
58497, -117, 1007, 216, -11060, -41230, 1610, -366, 304, -231
58498, -86, 968, 236, -11200, -42490, 1820, -363, 310, -226
58499, -61, 934, 250, -10710, -41580, 2310, -361, 298, -232
58500, -50, 913, 255, -9590, -39970, 2730, -358, 306, -232
58501, -13, 917, 255, -6300, -32970, 3780, -370, 301, -231
58502, 3, 904, 256, -4270, -27510, 4270, -361, 307, -238
58503, 5, 905, 251, -2660, -22540, 4690, -369, 303, -237
58504, 5, 921, 249, -1680, -18970, 5040, -373, 304, -246
58505, -16, 941, 242, -1260, -16240, 5460, -367, 307, -235
58506, -28, 941, 250, -1680, -16450, 5460, -372, 301, -256
58507, -33, 943, 249, -2030, -17010, 5320, -372, 303, -250
58508, -34, 936, 274, -2100, -17220, 5110, -366, 301, -249
58509, -17, 914, 282, -1820, -16800, 4970, -373, 309, -243
58510, 28, 870, 305, 140, -13020, 5040, -373, 303, -247
58511, 44, 862, 309, 1470, -10080, 5110, -364, 310, -240
58512, 51, 868, 317, 2870, -6930, 5320, -369, 309, -246
58513, 48, 881, 318, 3990, -4130, 5530, -381, 307, -247
58514, 41, 894, 318, 4760, -2030, 5600, -373, 307, -259
58515, 23, 907, 334, 4620, -630, 5600, -367, 313, -240
58516, 13, 917, 340, 4060, -910, 5460, -379, 309, -240
58517, 11, 912, 347, 3500, -980, 5390, -370, 307, -238
58518, 9, 881, 351, 3080, -630, 5180, -372, 319, -258
58519, 19, 831, 360, 2800, 630, 4830, -379, 309, -241
58520, 35, 896, 355, 3220, 1540, 4550, -378, 315, -234
58521, 53, 1036, 345, 3710, 3010, 4480, -373, 307, -243
58522, 63, 1154, 346, 3640, 4270, 4270, -367, 309, -241
58523, 48, 1192, 338, 2940, 3920, 3780, -373, 307, -244
58524, 29, 1109, 274, 560, -2450, 2660, -376, 309, -252
58525, 28, 1085, 256, -280, -4550, 2450, -375, 307, -244
58526, 32, 1057, 247, -910, -5180, 2310, -387, 316, -247
58527, -3, 1019, 268, -1540, -5950, 2030, -385, 303, -243
58528, -28, 1000, 279, -2240, -8260, 1680, -379, 313, -247
58529, 9, 962, 288, -2240, -10640, 1190, -378, 306, -237
58530, 29, 890, 288, -910, -7910, 1540, -378, 313, -252
58531, 16, 824, 283, 420, -4480, 2030, -381, 306, -244
58532, -7, 809, 287, 1540, -2870, 2380, -379, 309, -247
58533, -41, 931, 279, 1960, -4060, 2660, -379, 309, -244
58534, -46, 951, 294, 1610, -4970, 2730, -378, 313, -249
58535, -46, 929, 303, 910, -6230, 2730, -376, 307, -244
58536, -44, 893, 312, 0, -8050, 2800, -393, 307, -253
58537, -37, 876, 314, -700, -9730, 3010, -381, 304, -249
58538, -24, 854, 339, -1260, -9660, 3850, -375, 310, -250
58539, -17, 860, 352, -700, -8120, 4340, -382, 309, -247
58540, -18, 910, 362, -70, -6650, 4970, -373, 313, -249
58541, -4, 988, 362, 770, -5740, 5530, -373, 309, -255
58542, 10, 1068, 362, 1680, -3360, 6510, -387, 319, -252
58543, 4, 1163, 325, 3290, -2030, 6930, -378, 312, -250
58544, -44, 1101, 316, 3290, -2450, 7280, -378, 313, -255
58545, -75, 1017, 299, 2310, -6370, 7420, -384, 312, -249
58546, -69, 929, 286, 1120, -11480, 7490, -387, 313, -243
58547, -11, 867, 270, 560, -14350, 8400, -388, 316, -258
58548, -21, 841, 290, 840, -12320, 9170, -390, 324, -250
58549, -40, 825, 308, 980, -10780, 9590, -381, 319, -259
58550, -47, 906, 298, 840, -10710, 9940, -396, 322, -250
58551, -34, 1033, 288, 140, -11970, 10290, -391, 318, -246
58552, -34, 1172, 270, -2310, -15960, 10430, -384, 324, -253
58553, -41, 1193, 261, -4340, -20790, 9940, -391, 321, -264
58554, -39, 1221, 256, -7070, -27230, 9170, -391, 321, -258
58555, -19, 1177, 248, -9940, -34510, 8260, -393, 330, -253
58556, 9, 1017, 260, -13650, -40950, 7210, -396, 328, -253
58557, 60, 651, 290, -13090, -38850, 7140, -393, 324, -265
58558, 124, 613, 343, -9800, -33390, 7070, -399, 325, -267
58559, 252, 787, 376, -3500, -23170, 7210, -397, 325, -267
58560, 371, 1055, 350, 4900, -5950, 8050, -394, 321, -264
58561, 248, 1052, 232, 17780, 26530, 10010, -408, 336, -259
58562, 12, 1002, 180, 17220, 22680, 9240, -394, 325, -256
58563, -123, 1041, 138, 11970, 4480, 7350, -393, 328, -246
58564, -106, 1107, 120, 5460, -16660, 5040, -396, 331, -261
58565, -21, 1144, 128, 210, -30170, 3360, -391, 333, -256
58566, 21, 959, 177, -4620, -33040, 1610, -408, 330, -261
58567, -32, 819, 214, -6650, -35350, 560, -403, 339, -259
58568, -16, 793, 236, -8680, -41230, -770, -399, 331, -270
58569, 60, 879, 241, -9520, -45850, -1820, -402, 333, -270
58570, 161, 954, 257, -6720, -37870, -2310, -408, 321, -276
58571, 169, 883, 297, -4690, -31290, -2660, -408, 334, -256
58572, 118, 884, 295, -3500, -28280, -3290, -403, 333, -274
58573, 88, 922, 283, -3080, -28000, -3920, -406, 334, -270
58574, 88, 940, 278, -3290, -27860, -4620, -409, 324, -274
58575, 117, 937, 300, -3570, -25550, -6020, -408, 339, -264
58576, 144, 1041, 295, -3430, -23310, -6440, -399, 327, -277
58577, 187, 1073, 277, -3290, -20020, -6440, -399, 333, -271
58578, 171, 1003, 272, -3290, -16730, -6650, -411, 322, -274
58579, 128, 924, 272, -3780, -15400, -7140, -403, 324, -273
58580, 103, 987, 255, -5460, -19390, -8610, -397, 327, -274
58581, 96, 965, 264, -5670, -19250, -9520, -391, 322, -261
58582, 85, 876, 281, -5670, -17920, -10290, -402, 324, -279
58583, 58, 793, 292, -5740, -17990, -11410, -406, 321, -279
58584, 71, 742, 308, -4480, -19460, -13580, -411, 324, -292
58585, 223, 747, 360, -1680, -14770, -14280, -403, 318, -282
58586, 301, 785, 359, 2660, -4830, -14280, -411, 324, -283
58587, 320, 791, 342, 7140, 7560, -14000, -409, 316, -280
58588, 262, 783, 320, 10500, 17500, -13650, -402, 319, -274
58589, 110, 910, 327, 10990, 20580, -14350, -393, 318, -270
58590, 73, 1032, 297, 9170, 18130, -14980, -396, 319, -270
58591, 41, 1184, 277, 6860, 17010, -15330, -400, 321, -267
58592, 4, 1216, 282, 3850, 15330, -15680, -393, 318, -283
58593, -36, 1139, 295, -140, 10360, -16240, -384, 310, -277
58594, -8, 1218, 287, -7980, -3850, -16590, -397, 310, -289
58595, 21, 1126, 316, -10360, -6230, -16170, -396, 319, -279
58596, 1, 912, 343, -10990, -5600, -15890, -390, 315, -283
58597, -29, 777, 366, -10360, -4340, -15750, -390, 310, -279
58598, -22, 816, 362, -5880, 490, -15190, -394, 309, -289
58599, 14, 865, 350, -3500, 4900, -14770, -381, 312, -280
58600, -69, 871, 367, -2520, 5740, -14770, -390, 307, -295
58601, -122, 894, 367, -3430, -770, -15260, -384, 309, -285
58602, -101, 990, 372, -5110, -10920, -16170, -391, 306, -285
58603, 52, 1105, 366, -6090, -16100, -16520, -390, 300, -280
58604, 76, 1213, 323, -5390, -12880, -15750, -391, 301, -289
58605, 17, 1348, 278, -6300, -12390, -15120, -384, 306, -297
58606, -139, 1297, 278, -9660, -19180, -15540, -391, 304, -300
58607, -261, 1175, 311, -14700, -32760, -16800, -394, 309, -292
58608, -41, 993, 348, -19180, -50750, -19040, -387, 289, -294
58609, 132, 815, 394, -15120, -40040, -18410, -393, 297, -315
58610, 172, 562, 393, -8050, -21980, -17430, -378, 297, -304
58611, 171, 430, 376, -630, -5390, -16100, -388, 307, -304
58612, 55, 648, 287, 7770, 12110, -13860, -390, 295, -303
58613, -32, 786, 271, 7280, 12040, -13720, -388, 303, -315
58614, -134, 884, 288, 3850, 5460, -14350, -375, 303, -304
58615, -170, 987, 301, -910, -4690, -15540, -391, 294, -298
58616, -139, 1014, 324, -5390, -13370, -16800, -381, 303, -295
58617, 78, 685, 405, -7350, -13510, -17500, -384, 297, -312
58618, 181, 601, 457, -3920, -5600, -17010, -385, 297, -316
58619, 293, 633, 494, 2590, 7910, -16100, -382, 298, -309
58620, 361, 755, 474, 11200, 29050, -14490, -382, 291, -315
58621, 376, 840, 445, 19810, 54110, -12040, -376, 285, -306
58622, 112, 805, 383, 26530, 80010, -8470, -375, 303, -297
58623, -11, 916, 356, 24500, 74270, -8190, -378, 292, -289
58624, 31, 1215, 312, 21280, 67130, -7630, -378, 291, -295
58625, 80, 1410, 275, 19390, 68390, -6580, -376, 295, -276
58626, -156, 1336, 281, 13720, 72520, -5320, -367, 301, -286
58627, -222, 1104, 276, 8050, 60200, -5880, -372, 295, -273
58628, -203, 1044, 260, 2520, 44660, -6580, -364, 298, -277
58629, -16, 1115, 241, -630, 34370, -6440, -363, 295, -271
58630, 104, 1114, 278, 0, 35560, -5810, -366, 297, -270
58631, 103, 1188, 306, 7000, 51450, -3570, -363, 285, -271
58632, 15, 984, 288, 9240, 55930, -2730, -361, 294, -276
58633, -126, 728, 239, 8960, 53690, -2310, -357, 295, -256
58634, -176, 500, 256, 7210, 44170, -2660, -364, 295, -259
58635, -139, 409, 286, 6860, 34020, -3360, -363, 291, -270
58636, 197, 844, 236, 16660, 51380, -1470, -358, 301, -259
58637, 153, 835, 212, 21630, 69370, 350, -354, 292, -261
58638, -108, 877, 223, 21070, 71400, 770, -358, 301, -267
58639, -328, 1166, 236, 13580, 49910, -700, -355, 289, -240
58640, -82, 1787, 170, -5530, -3220, -3920, -358, 295, -243
58641, -18, 1636, 217, -10640, -8190, -4480, -357, 294, -252
58642, -67, 1277, 330, -12250, -9170, -5390, -355, 300, -243
58643, 16, 1081, 382, -11060, -9030, -6090, -354, 292, -258
58644, 200, 1021, 264, -6020, 1120, -5530, -355, 297, -258
58645, 91, 496, 237, 8120, 43820, -2660, -349, 297, -249
58646, -85, 453, 225, 10710, 49910, -2800, -358, 303, -241
58647, -215, 650, 205, 9240, 38990, -3780, -349, 301, -240
58648, -138, 941, 216, 6440, 23730, -4760, -346, 306, -237
58649, 16, 1132, 220, 4690, 19810, -5320, -355, 291, -241
58650, -148, 1006, 196, 2590, 21910, -6020, -358, 309, -234
58651, -378, 885, 189, -980, 15400, -7840, -346, 294, -241
58652, -292, 899, 214, -5530, 840, -9310, -348, 303, -228
58653, -92, 1013, 241, -8260, -8610, -10150, -355, 300, -228
58654, 363, 1149, 372, -2100, 11130, -7560, -354, 286, -229
58655, 339, 1086, 377, 5250, 29960, -6020, -343, 294, -226
58656, 232, 931, 329, 12180, 47110, -4830, -349, 300, -237
58657, 75, 746, 269, 17150, 60690, -4130, -349, 292, -222
58658, -99, 486, 242, 18620, 63770, -4480, -351, 289, -220
58659, -115, 318, 223, 14420, 41860, -5950, -340, 288, -217
58660, 61, 583, 185, 13860, 37240, -5880, -346, 285, -211
58661, 143, 1126, 133, 14910, 45150, -5390, -331, 292, -202
58662, 24, 1703, 122, 13580, 54600, -5460, -337, 277, -210
58663, -289, 1813, 158, -6720, 14560, -11060, -339, 286, -201
58664, -336, 1597, 237, -20160, -22260, -13720, -340, 282, -211
58665, -32, 1230, 215, -27230, -38430, -14770, -339, 289, -202
58666, 79, 625, 204, -26460, -29540, -14140, -333, 274, -213
58667, 72, 11, 254, -21140, -10430, -12810, -331, 280, -225
58668, 148, 126, 562, -3570, 14280, -12670, -336, 283, -228
58669, 566, 995, 453, 10640, 39410, -10990, -333, 279, -220
58670, 767, 1431, 404, 26670, 86660, -8120, -333, 274, -208
58671, 511, 1581, 353, 39830, 126000, -7210, -334, 282, -193
58672, 49, 1683, 209, 42350, 132860, -9170, -327, 280, -189
58673, -304, 1752, 23, 23940, 79100, -16170, -331, 280, -186
58674, -89, 1473, 92, 12740, 50960, -17640, -325, 282, -171
58675, 87, 865, 151, 5320, 34860, -18060, -325, 277, -174
58676, 192, 436, 149, 2590, 31220, -16660, -325, 267, -177
58677, 89, 213, 127, 8960, 59080, -12950, -327, 267, -172
58678, -69, 331, 92, 12810, 76230, -11970, -330, 270, -174
58679, -128, 855, 57, 13440, 83720, -11760, -327, 270, -160
58680, -275, 1849, -87, 9310, 79520, -13230, -322, 270, -172
58681, -447, 2398, -213, -630, 60900, -16450, -315, 271, -162
58682, -496, 2016, -70, -30520, -11830, -21770, -322, 273, -162
58683, -261, 1508, 82, -44450, -49350, -21980, -324, 265, -169
58684, -250, 784, 102, -51730, -73080, -21280, -309, 270, -180
58685, -148, 136, 93, -51450, -76370, -19110, -321, 271, -181
58686, -82, -319, 184, -44730, -59010, -16660, -321, 262, -189
58687, 257, -649, 692, -13230, -3850, -10990, -312, 270, -192
58688, 686, -94, 519, 13650, 49700, -4690, -316, 264, -195
58689, 812, 275, 307, 43050, 130690, 2730, -319, 268, -190
58690, 316, 594, 193, 66500, 204680, 7770, -315, 271, -168
58691, -553, 1227, 21, 57750, 184940, -1260, -319, 274, -153
58692, -1092, 3207, -160, 31150, 103110, -6580, -316, 264, -144
58693, -343, 3057, -87, 5810, 34020, -9380, -310, 262, -133
58694, 254, 2411, 5, -10990, -3150, -7630, -313, 274, -144
58695, 289, 1354, 144, -19460, -7840, -3080, -321, 270, -139
58696, -385, -455, 176, -20440, 8190, 5460, -321, 268, -141
58697, -288, -567, 109, -13090, 26880, 8960, -310, 280, -133
58698, 22, -411, 102, -2800, 55370, 12600, -316, 271, -138
58699, -126, -247, 78, 6720, 81970, 13930, -319, 280, -123
58700, -373, -35, 140, 10710, 90090, 14070, -313, 279, -123
58701, -217, 1654, 199, 2240, 50190, 10570, -325, 282, -123
58702, -122, 2419, 356, -3640, 23800, 7910, -313, 279, -118
58703, -83, 2944, 394, -6440, 9590, 7770, -325, 276, -109
58704, 73, 2577, 382, -5670, 12810, 8540, -319, 268, -115
58705, -291, 1481, 175, -280, 15680, 9030, -316, 273, -114
58706, -588, 196, 20, 1540, 9730, 9870, -313, 268, -115
58707, -418, 76, 136, 3220, 5460, 10710, -309, 279, -106
58708, -425, 287, 68, 4200, -560, 11830, -321, 274, -106
58709, -344, 485, 106, 4200, -6930, 13230, -315, 271, -111
58710, -295, 825, 164, -210, -18550, 14350, -319, 276, -124
58711, -220, 1083, 112, -2940, -16800, 14770, -324, 270, -111
58712, -121, 1237, 106, -5110, -10150, 15470, -315, 274, -117
58713, -168, 1633, 11, -7140, -3290, 15820, -319, 282, -112
58714, -255, 1878, 118, -10850, 210, 16450, -321, 268, -111
58715, -134, 1748, 209, -16170, -3850, 18200, -327, 286, -117
58716, -15, 1479, 111, -14210, 2940, 20440, -325, 273, -124
58717, -10, 1024, 67, -10150, 19600, 23380, -318, 279, -111
58718, -285, 534, 55, -7210, 34510, 24990, -324, 280, -117
58719, -555, 10, 97, -10360, 18340, 24920, -330, 279, -120
58720, -185, 337, 82, -10710, 11060, 26390, -322, 277, -111
58721, 18, 682, 37, -7840, 18340, 27720, -330, 280, -114
58722, -45, 764, 69, -5950, 28420, 28420, -331, 289, -114
58723, -347, 1244, 38, -8470, 22680, 27300, -336, 280, -114
58724, -447, 2620, 29, -27650, -33950, 22190, -322, 291, -103
58725, -275, 2511, 75, -38570, -63140, 21070, -337, 286, -108
58726, -236, 1695, 134, -45710, -85820, 19880, -333, 283, -124
58727, -232, 1015, 141, -50050, -104300, 20440, -340, 282, -141
58728, -341, 333, 163, -49560, -109970, 20020, -343, 289, -144
58729, -29, -343, 243, -35140, -91210, 21840, -345, 294, -148
58730, -72, -248, 180, -24360, -66990, 22190, -339, 298, -163
58731, -74, -153, 248, -14630, -43820, 21980, -339, 286, -151
58732, -293, 223, 274, -7560, -27510, 20440, -337, 303, -154
58733, -142, 1736, 359, -1400, -16520, 15400, -343, 286, -153
58734, 65, 2155, 394, -1120, -15260, 13790, -337, 301, -156
58735, 245, 1979, 405, -1540, -14980, 12950, -340, 294, -171
58736, 283, 1525, 318, -1890, -13090, 13230, -340, 298, -163
58737, 259, 984, 283, -1050, -7700, 14630, -354, 295, -163
58738, -71, 145, 181, 4200, 11480, 16240, -357, 307, -166
58739, -117, 193, 151, 7910, 22750, 17150, -343, 300, -160
58740, -98, 382, 144, 10500, 30520, 17430, -345, 298, -163
58741, -161, 516, 178, 10500, 31010, 16940, -351, 300, -159
58742, -184, 602, 213, 7980, 23100, 15960, -352, 310, -153
58743, 2, 845, 213, 3080, 7420, 14210, -346, 306, -156
58744, 134, 1151, 276, 2730, 10010, 14280, -355, 307, -156
58745, 246, 1250, 394, 3850, 15820, 14560, -352, 312, -151
58746, 222, 1443, 437, 4900, 21000, 14700, -351, 318, -141
58747, 171, 1481, 278, 6510, 31220, 15260, -351, 312, -147
58748, -4, 1065, 278, 5320, 32900, 14770, -364, 324, -141
58749, -234, 703, 210, 2240, 25620, 13230, -358, 316, -139
58750, -283, 526, 212, -980, 12250, 12040, -360, 319, -135
58751, -110, 723, 147, -1540, 5740, 11620, -363, 309, -142
58752, -71, 2187, -49, -560, 18690, 10220, -360, 307, -138
58753, -276, 2206, 61, -8260, 10920, 7280, -360, 319, -136
58754, -404, 1870, 229, -22050, -22470, 3360, -352, 310, -130
58755, -179, 1378, 323, -34860, -65590, 1120, -352, 307, -150
58756, 128, 998, 202, -37660, -84700, 1260, -358, 312, -150
58757, 296, -13, 252, -13230, -15400, 7700, -348, 315, -159
58758, -123, -253, 365, 490, 14700, 8750, -358, 312, -145
58759, -247, 49, 331, 9870, 16660, 8890, -360, 310, -154
58760, -72, 589, 216, 16800, 18340, 9870, -361, 310, -151
58761, 42, 1378, 70, 23310, 42490, 11200, -355, 313, -141
58762, -340, 1626, 64, 15750, 30450, 8610, -355, 312, -135
58763, -524, 1763, 122, 1190, -5180, 5110, -354, 324, -147
58764, -251, 1763, 163, -14490, -49350, 3010, -354, 316, -151
58765, -4, 1338, 170, -24430, -74690, 1540, -360, 300, -151
58766, -55, -21, 103, -22190, -55720, 3150, -366, 309, -154
58767, -130, -235, 181, -17080, -40670, 4690, -366, 312, -159
58768, -235, -244, 153, -12880, -33040, 4480, -364, 315, -157
58769, -170, -180, 140, -9100, -28350, 4340, -369, 315, -159
58770, 40, 37, 175, -3920, -2170, 4270, -366, 306, -166
58771, 326, 1897, 505, 8470, 15820, 3990, -346, 318, -163
58772, 331, 1920, 614, 12600, 32830, 3640, -363, 312, -168
58773, 347, 1553, 554, 16100, 40740, 3360, -358, 310, -148
58774, 362, 1224, 411, 18970, 44730, 3360, -357, 313, -159
58775, 136, 812, 133, 24150, 58800, 5530, -355, 315, -151
58776, -214, 963, 140, 22540, 54740, 5180, -361, 318, -142
58777, -346, 1198, 131, 16380, 34580, 3500, -363, 318, -135
58778, -328, 1691, 43, 7350, 7280, 1330, -363, 319, -139
58779, -249, 1911, 25, -2170, -14840, -490, -364, 309, -147
58780, -295, 1177, 164, -18900, -51100, -3430, -369, 307, -148
58781, -181, 958, 130, -23310, -66640, -3780, -366, 315, -144
58782, -45, 1030, 117, -23660, -65310, -2590, -355, 310, -160
58783, -19, 640, 185, -20860, -49910, -1330, -363, 321, -156
58784, -227, 100, 247, -11760, -27300, -210, -361, 310, -168
58785, 45, 456, 382, -4060, -16380, 630, -360, 315, -156
58786, 296, 1181, 257, 6930, 11620, 2940, -361, 319, -166
58787, 469, 1498, 224, 16730, 48090, 6160, -358, 328, -160
58788, 118, 1211, 347, 20860, 64540, 7490, -364, 316, -154
58789, -126, 1926, 100, 10430, 16520, 6510, -375, 328, -148
58790, 5, 1954, -5, 3500, 3780, 6720, -363, 322, -159
58791, -192, 1336, 55, -2170, -560, 7000, -361, 319, -156
58792, -420, 719, 152, -8960, -16730, 6720, -361, 330, -156
58793, -460, 418, 166, -15260, -40740, 6020, -367, 328, -162
58794, 28, 286, 83, -11340, -38150, 7490, -366, 321, -163
58795, 9, 154, 137, -3780, -11900, 8890, -363, 318, -172
58796, -213, -84, 215, 1540, 3780, 9450, -360, 322, -174
58797, -330, -95, 224, 2800, -70, 9170, -373, 339, -160
58798, -163, 365, 212, 3430, -8610, 9590, -364, 316, -157
58799, 362, 2612, 256, 2450, 700, 11550, -367, 322, -151
58800, 78, 2858, 447, -2660, -4550, 10360, -372, 330, -156
58801, -288, 2563, 446, -13020, -34160, 8120, -369, 330, -157
58802, -284, 1550, 355, -21910, -65030, 5530, -363, 325, -163
58803, -46, 81, 103, -14980, -62440, 6580, -375, 313, -165
58804, 85, -120, 78, -4410, -35070, 9660, -379, 330, -169
58805, -173, -312, 240, 4200, -14280, 11130, -375, 322, -168
58806, -371, -169, 270, 8330, -14350, 10920, -373, 315, -168
58807, -211, 564, 113, 10640, -19040, 10570, -373, 319, -157
58808, 19, 1774, 243, 12250, 3150, 11760, -369, 319, -175
58809, -58, 1549, 341, 7350, -3010, 11060, -373, 333, -169
58810, -97, 1263, 326, -560, -23520, 10640, -379, 328, -166
58811, 78, 960, 275, -4830, -37800, 11620, -379, 330, -165
58812, 323, 1023, 205, 6440, -1540, 18480, -370, 321, -175
58813, 162, 1175, 241, 12880, 23870, 21070, -385, 322, -174
58814, -216, 1058, 230, 13440, 28560, 21840, -378, 322, -184
58815, -437, 897, 166, 7910, 11340, 20720, -375, 334, -162
58816, -362, 904, 195, 1470, -11340, 19320, -385, 324, -166
58817, 207, 1025, 101, 770, -14350, 20650, -382, 333, -160
58818, 150, 760, 113, 3290, 3220, 23100, -388, 321, -168
58819, -163, 496, 140, 2240, 6510, 23660, -376, 331, -165
58820, -322, 556, 157, -3920, -12530, 23310, -384, 333, -183
58821, -131, 923, 145, -10780, -35140, 22400, -385, 334, -172
58822, 103, 1888, 75, -16170, -31640, 23730, -382, 334, -171
58823, -90, 1902, 136, -21210, -27510, 23730, -391, 334, -166
58824, -490, 1535, 270, -31430, -46970, 20720, -402, 333, -175
58825, -430, 1192, 512, -40320, -81970, 16240, -394, 334, -177
58826, 275, 1496, 287, -19530, -58590, 17010, -394, 336, -195
58827, 1152, 1274, 216, 4200, 9100, 22960, -400, 327, -187
58828, 384, 813, 294, 21420, 64680, 26530, -393, 342, -196
58829, -235, 205, 156, 22540, 65800, 25340, -402, 342, -184
58830, -733, -204, 170, 10220, 16170, 19950, -405, 337, -184
58831, 242, 936, -42, -4550, -66430, 13370, -394, 333, -180
58832, 614, 1106, -42, 1890, -39760, 15050, -403, 337, -190
58833, 343, 471, 113, 7840, -2030, 16660, -396, 340, -195
58834, -212, -29, 186, 5110, 1890, 13650, -400, 351, -192
58835, -451, 402, 157, -4900, -32900, 8540, -409, 339, -193
58836, 330, 2080, 73, -16660, -66850, 4410, -405, 345, -202
58837, 407, 1628, 285, -17990, -52500, 4760, -411, 340, -208
58838, 124, 924, 500, -20090, -52290, 1750, -406, 346, -201
58839, 163, 1099, 496, -19670, -68180, -3500, -411, 348, -204
58840, 885, 1979, 113, 1470, -22750, -3640, -412, 348, -211
58841, 634, 998, 203, 12670, 22890, -1960, -418, 345, -208
58842, -186, 86, 182, 12810, 29190, -4830, -412, 346, -205
58843, -587, -108, 149, 2170, -15470, -10500, -412, 351, -202
58844, -251, 485, 62, -8470, -64610, -15610, -408, 352, -205
58845, 587, 920, 56, -5250, -43890, -16310, -400, 345, -214
58846, 238, 434, 108, -1610, -15050, -16450, -415, 346, -204
58847, -330, 284, 157, -5950, -22750, -20440, -415, 336, -219
58848, -393, 860, 124, -16380, -58240, -25480, -405, 340, -205
58849, 13, 1962, 90, -26320, -86590, -29680, -406, 339, -219
58850, 249, 1599, 339, -38010, -77490, -32830, -411, 343, -225
58851, -19, 726, 696, -40600, -81620, -37100, -402, 324, -235
58852, 144, 331, 513, -37870, -88410, -41230, -414, 328, -243
58853, 482, 290, 250, -25480, -60410, -41020, -405, 325, -244
58854, 303, -613, 387, 7350, 45850, -35560, -403, 334, -241
58855, -98, -116, 463, 14070, 51940, -36610, -399, 322, -244
58856, 315, 1128, 365, 14140, 33740, -37450, -400, 328, -235
58857, 776, 2586, 328, 13300, 32270, -36050, -387, 321, -241
58858, 698, 3266, 229, 11340, 47390, -34300, -397, 321, -238
58859, -529, 1190, 313, -6090, 31150, -36050, -399, 328, -229
58860, -521, 840, 363, -18200, -12670, -38290, -388, 322, -234
58861, -83, 688, 339, -22680, -32620, -38780, -385, 321, -238
58862, 400, 552, 246, -15540, -8470, -34510, -376, 309, -250
58863, 379, 137, 298, -2800, 38010, -28770, -379, 312, -231
58864, -282, -573, 422, 9730, 58030, -24360, -376, 313, -237
58865, -137, -354, 385, 10640, 42140, -24780, -372, 315, -238
58866, 240, 378, 404, 15540, 42630, -23380, -376, 301, -238
58867, 704, 1369, 374, 25550, 74200, -19250, -375, 319, -228
58868, 106, 2054, 545, 34370, 122430, -12740, -375, 310, -211
58869, -447, 1852, 416, 23030, 89950, -12880, -367, 312, -210
58870, -261, 1425, 406, 7350, 41860, -14210, -363, 306, -210
58871, -240, 1158, 290, -2590, 11480, -15120, -375, 307, -213
58872, -65, 901, 172, -1960, 17360, -12950, -366, 306, -202
58873, -249, 242, 348, 8820, 56980, -7980, -367, 312, -204
58874, -486, -19, 357, 7770, 46760, -8820, -367, 303, -205
58875, -469, 408, 280, 4480, 22890, -8540, -364, 300, -199
58876, 244, 979, 392, 4270, 11200, -6510, -361, 306, -201
58877, 666, 1358, 550, 12040, 27930, 3850, -360, 313, -204
58878, 581, 2666, 166, 33250, 96810, 10080, -369, 312, -189
58879, -344, 2064, 171, 31570, 106260, 12320, -369, 310, -192
58880, -992, 1342, 286, 15820, 64400, 11900, -360, 313, -192
58881, -915, 831, 332, -3780, -910, 8960, -363, 318, -181
58882, 450, 39, 129, -2520, -2030, 16030, -360, 309, -192
58883, 446, -188, 102, 16520, 69020, 24500, -369, 319, -183
58884, -63, -535, 174, 30730, 119560, 30100, -358, 313, -175
58885, -736, -484, 204, 31360, 116270, 30450, -370, 319, -169
58886, -761, 505, 167, 21840, 73570, 29890, -364, 316, -156
58887, 883, 2786, 54, 5320, 38780, 34650, -367, 319, -154
58888, 490, 2929, 2, -2940, 48090, 35560, -364, 318, -147
58889, -345, 1936, 79, -16660, 29750, 32760, -378, 330, -147
58890, -809, 1560, 256, -34370, -22680, 29960, -379, 318, -163
58891, -320, 1220, 296, -44660, -67480, 30380, -376, 327, -163
58892, 471, -109, 258, -29750, -17850, 34090, -382, 321, -165
58893, 249, -538, 458, -11690, 31150, 37380, -378, 321, -166
58894, 62, -423, 476, 4410, 59010, 39830, -379, 324, -159
58895, 167, 132, 325, 17500, 77140, 42210, -375, 322, -151
58896, 501, 743, 122, 33180, 117670, 45710, -372, 325, -156
58897, 260, 1727, 63, 28980, 112910, 43400, -391, 321, -139
58898, 56, 2687, 19, 13020, 75950, 39200, -379, 321, -132
58899, -24, 2817, 97, -9870, 19180, 33320, -381, 331, -136
58900, 96, 2252, 151, -31010, -34440, 29400, -379, 331, -132
58901, 298, 687, 199, -43400, -67690, 26880, -378, 337, -151
58902, 188, 169, 326, -31360, -46340, 27300, -385, 328, -157
58903, 337, -188, 386, -11620, -8890, 29190, -396, 315, -153
58904, 396, -151, 244, 10080, 39550, 31080, -390, 336, -151
58905, 289, 158, 214, 36330, 92050, 29260, -397, 339, -132
58906, 31, 2074, -92, 29680, 74690, 26320, -385, 334, -138
58907, -192, 2255, 93, 10220, 21700, 20440, -393, 337, -129
58908, -67, 2066, 110, -14770, -50260, 15050, -387, 334, -141
58909, 217, 1666, 102, -34020, -107590, 12110, -391, 337, -141
58910, 166, 369, -58, -34230, -101920, 9310, -400, 342, -154
58911, 54, 58, 64, -26740, -74060, 8750, -402, 348, -157
58912, -436, -39, 66, -23520, -66780, 5320, -402, 342, -177
58913, -568, 102, 119, -25480, -81970, 700, -402, 346, -168
58914, -403, 869, 54, -29050, -102760, -4060, -399, 336, -181
58915, 177, 1397, 289, -34720, -117460, -12180, -399, 345, -177
58916, 155, 774, 518, -34020, -118720, -17920, -399, 346, -196
58917, 209, 622, 394, -28350, -113400, -22120, -400, 340, -198
58918, 644, 743, 290, -16170, -86240, -22330, -402, 336, -208
58919, 777, 596, 273, 12740, 2660, -20440, -405, 340, -201
58920, -68, 524, 348, 18480, 11620, -22470, -402, 352, -219
58921, -120, 1042, 204, 17500, -700, -24290, -403, 349, -199
58922, 258, 1567, 87, 14280, -9240, -24780, -394, 343, -210
58923, 358, 2375, -91, 9590, -5110, -24500, -397, 342, -201
58924, -330, 1999, 138, -18340, -45220, -26600, -399, 345, -193
58925, -384, 1450, 180, -37030, -90650, -29470, -403, 337, -207
58926, -256, 665, 137, -47110, -118300, -30870, -402, 345, -217
58927, -39, 165, 116, -44310, -106890, -28700, -396, 342, -213
58928, 167, -9, 76, -32830, -67970, -23380, -403, 336, -238
58929, -469, -566, 369, -14840, -15120, -18830, -394, 333, -226
58930, -491, -204, 514, -11200, -31220, -21700, -388, 337, -235
58931, 94, 1895, 454, -4690, -37450, -23030, -396, 327, -220
58932, 554, 3077, 471, 4760, -5950, -21000, -387, 330, -234
58933, 651, 2173, 526, 15960, 53060, -18900, -391, 321, -225
58934, -153, -543, 314, 12880, 26670, -20860, -397, 330, -219
58935, 14, -189, 157, 14350, 12740, -19810, -385, 327, -219
58936, 758, 287, 37, 25060, 45220, -13370, -390, 333, -226
58937, 815, 302, 53, 39760, 107310, -5810, -388, 325, -207
58938, -171, 2280, -79, 40250, 122220, 700, -384, 322, -199
58939, -304, 3782, -143, 16450, 61600, -1540, -387, 321, -201
58940, -300, 3319, 51, -13020, -6090, -5810, -384, 319, -198
58941, -288, 2540, 139, -36890, -58310, -8820, -373, 316, -195
58942, -151, 1373, 188, -49420, -83930, -9730, -385, 331, -196
58943, 93, -277, 183, -36190, -45290, -4900, -382, 315, -216
58944, 104, -620, 376, -22960, -13720, -2590, -378, 328, -223
58945, -115, -787, 523, -10290, 3640, -2240, -396, 318, -226
58946, 25, -514, 513, 3360, 13720, -2100, -384, 316, -219
58947, 506, 201, 178, 36470, 81130, 3290, -382, 319, -217
58948, 403, 602, 194, 48020, 115360, 6440, -387, 324, -202
58949, 23, 1637, 276, 46900, 107100, 6370, -381, 321, -213
58950, -30, 2669, 319, 33950, 58800, 5110, -384, 325, -201
58951, 83, 3248, 292, 17990, 5600, 2730, -381, 319, -196
58952, -143, 1476, 104, -980, -23590, 840, -379, 322, -195
58953, -485, 450, 155, -4760, -22680, 350, -379, 318, -201
58954, -435, 15, 118, -8050, -34020, -490, -379, 315, -192
58955, -333, 89, 69, -8330, -42980, -980, -388, 328, -208
58956, -53, 234, 57, -4900, -38360, 910, -387, 325, -205
58957, -107, 329, 121, 2450, -7350, 6300, -373, 324, -199
58958, -239, 633, 178, 140, -9590, 6160, -393, 328, -195
58959, -65, 1099, 396, -3640, -22960, 5460, -376, 324, -210
58960, 379, 1892, 488, -2590, -30100, 5390, -388, 330, -207
58961, 562, 2077, 193, 11270, 26390, 10220, -382, 322, -211
58962, 3, 1387, 159, 13440, 54320, 10920, -391, 331, -207
58963, -551, 739, 148, 4480, 38640, 6860, -378, 325, -202
58964, -677, 714, 107, -9240, -7420, 2030, -391, 333, -208
58965, -235, 877, 42, -18550, -47250, 910, -388, 331, -210
58966, 96, 511, 104, -12670, -35700, 5530, -390, 339, -213
58967, -226, -104, 174, -7630, -11550, 6860, -388, 333, -208
58968, -396, -251, 328, -7210, -15120, 6160, -390, 333, -208
58969, -172, 145, 448, -3920, -31780, 4340, -397, 334, -219
58970, 368, 1217, 460, 8050, -33180, 5880, -393, 324, -211
58971, 751, 1548, 304, 40320, 70140, 19530, -385, 330, -202
58972, 189, 832, 287, 42210, 93030, 20370, -387, 339, -190
58973, -477, 845, 197, 26600, 55090, 16170, -396, 331, -186
58974, -167, 1626, 91, 7000, -5110, 12250, -394, 327, -187
58975, 267, 2523, -56, -10920, -42490, 12600, -400, 334, -193
58976, -136, 1141, 106, -15470, -27720, 12320, -396, 333, -195
58977, -426, -5, 250, -23100, -32130, 9940, -397, 336, -201
58978, -484, -160, 130, -29680, -56070, 7210, -397, 331, -202
58979, 38, 214, 63, -27160, -66220, 7700, -400, 336, -205
58980, 335, 622, 176, -5600, -13580, 16380, -393, 330, -208
58981, -297, 885, 207, -2380, 7070, 16800, -400, 328, -201
58982, -195, 1425, 349, -8890, -8890, 13930, -405, 328, -208
58983, -109, 2245, 223, -18760, -34440, 9800, -405, 325, -210
58984, 300, 2486, 188, -26600, -54040, 8960, -400, 328, -213
58985, 304, 1087, 369, -19250, -59010, 7280, -408, 331, -229
58986, 685, 1092, 330, -4830, -33040, 8610, -396, 331, -232
58987, 573, 736, 143, 11200, 13020, 12880, -411, 333, -225
58988, 426, -207, 125, 24080, 58240, 17290, -408, 339, -217
58989, -560, -668, 184, 21420, 41440, 13720, -400, 328, -205
58990, -488, -64, 31, 16170, 5880, 9450, -403, 322, -205
58991, 91, 589, -67, 17780, -11480, 8960, -403, 337, -213
58992, 366, 1428, -104, 22540, -1330, 11620, -396, 325, -202
58993, 549, 2182, 86, 21000, 14280, 15050, -406, 343, -213
58994, -97, 2620, 108, -19810, -52920, 7070, -403, 337, -214
58995, -33, 2866, -8, -43540, -105560, 2030, -403, 330, -228
58996, 268, 2281, -17, -56630, -130270, 560, -418, 330, -238
58997, -9, 1042, 51, -59150, -128450, 1190, -415, 337, -235
58998, -115, -141, 130, -56420, -97720, 3920, -412, 333, -244
58999, 76, -548, 388, -42840, -83440, 3080, -411, 343, -255
59000, 183, -314, 544, -28350, -68180, 1750, -420, 328, -262
59001, 307, 340, 558, -7980, -36120, 1750, -429, 334, -247
59002, 369, 828, 441, 13510, 9590, 4410, -420, 333, -252
59003, 152, 772, 343, 35350, 53060, 6720, -421, 331, -246
59004, -219, 1245, 196, 28490, 27160, 3570, -417, 334, -250
59005, -12, 1494, 213, 15400, -13790, -1120, -420, 340, -241
59006, 97, 1417, 189, 4130, -44590, -5460, -430, 340, -252
59007, 418, 1176, 171, -630, -49210, -7350, -432, 346, -259
59008, 279, 980, 174, -490, -9730, -4200, -432, 343, -255
59009, 93, 781, 176, -3990, -7350, -3710, -424, 348, -241
59010, 15, 724, 211, -9660, -17710, -5460, -423, 346, -247
59011, 7, 922, 195, -14560, -28280, -6580, -412, 349, -250
59012, 128, 919, 233, -15470, -14840, -6580, -420, 343, -270
59013, 108, 1144, 226, -13790, -1050, -6160, -430, 352, -253
59014, 321, 1830, 420, -13650, 910, -5460, -415, 340, -256
59015, 449, 2049, 503, -13720, -4060, -5740, -414, 337, -247
59016, 556, 1868, 409, -12880, -6160, -5600, -415, 333, -258
59017, 152, 229, 235, -7070, 7630, -4060, -426, 342, -258
59018, -347, 261, 193, -5040, 9800, -4060, -418, 334, -246
59019, -282, 405, 160, -5810, -210, -4200, -417, 339, -253
59020, -441, 390, 166, -7700, -13720, -5040, -429, 337, -264
59021, -258, 339, 204, -10010, -30730, -5390, -417, 337, -258
59022, -40, 380, 246, -10990, -54810, -5460, -415, 328, -258
59023, 5, 492, 440, -7420, -53130, -5040, -429, 327, -253
59024, 320, 941, 595, 420, -44310, -4900, -409, 331, -259
59025, 408, 1437, 558, 10850, -23310, -3430, -429, 327, -261
59026, 520, 1589, 352, 23310, 28700, 3640, -421, 333, -253
59027, -22, 430, 336, 18760, 22960, 4760, -427, 334, -252
59028, -107, 517, 286, 11270, -5530, 2730, -420, 337, -255
59029, 254, 1489, 163, 7560, -21770, 2520, -423, 336, -273
59030, 367, 2294, 80, 9310, -6230, 6090, -429, 340, -253
59031, -273, 1404, 318, 1890, 17220, 10500, -412, 334, -247
59032, -306, 1174, 310, -10640, -15890, 6650, -429, 334, -253
59033, -31, 1471, 157, -20300, -49490, 4620, -426, 334, -262
59034, 179, 1267, 91, -20860, -56280, 5740, -423, 330, -267
59035, 130, 660, 160, -14910, -39970, 9730, -423, 328, -270
59036, -199, -324, 383, -4970, -10710, 14770, -420, 331, -270
59037, 71, 14, 385, 3010, -14210, 14350, -423, 328, -276
59038, 206, 708, 267, 17080, 770, 15610, -429, 333, -265
59039, 524, 931, 92, 32550, 34440, 20650, -439, 342, -258
59040, 371, 380, 171, 42210, 88060, 28910, -429, 334, -250
59041, -397, 738, 172, 29890, 58450, 26670, -435, 333, -241
59042, 60, 1557, 168, 16800, 18760, 23940, -432, 348, -244
59043, 439, 2066, 114, 10010, -2030, 24010, -444, 340, -240
59044, 755, 2060, -19, 9100, 6160, 25830, -432, 352, -246
59045, 142, 1858, 82, -7070, 17010, 26670, -435, 351, -246
59046, -86, 1726, 191, -21140, -10990, 22400, -432, 346, -241
59047, 382, 1561, 194, -27580, -32480, 19040, -445, 343, -240
59048, 461, 1072, 89, -22960, -26670, 20790, -444, 339, -250
59049, 393, 169, 169, -11270, 2170, 24430, -447, 342, -246
59050, 78, -255, 200, 5320, 43330, 30940, -441, 342, -247
59051, -193, 15, 53, 8120, 44730, 31920, -442, 345, -243
59052, 45, 283, 61, 11550, 43190, 31920, -448, 346, -247
59053, -18, 548, 55, 15680, 41790, 32970, -447, 354, -246
59054, 333, 1116, 139, 20580, 31080, 35630, -448, 355, -252
59055, 462, 1653, 152, 18130, 18270, 36610, -436, 360, -234
59056, 417, 2034, 33, 12390, 5950, 35840, -445, 364, -241
59057, 266, 1883, 46, 3710, -9030, 34510, -445, 355, -235
59058, 145, 1486, 65, -6650, -26600, 32270, -459, 361, -229
59059, 21, 657, 27, -21490, -59990, 28840, -459, 358, -231
59060, 41, 541, -15, -20650, -59360, 28910, -451, 366, -240
59061, 160, 403, 19, -15680, -44730, 30310, -457, 375, -241
59062, 111, 150, 107, -10500, -25760, 31990, -462, 367, -235
59063, 52, 90, 180, -6370, -14140, 33250, -466, 360, -240
59064, 359, 1390, 157, 3990, -1050, 36260, -478, 369, -235
59065, 697, 2281, 122, 8470, 7770, 39200, -466, 369, -226
59066, 706, 2364, 143, 7910, 12460, 40740, -475, 361, -244
59067, 364, 1997, 84, -420, -2520, 39830, -474, 364, -234
59068, 114, 1324, -45, -24920, -60550, 32410, -471, 363, -238
59069, 165, 946, -50, -28490, -71960, 30100, -483, 370, -241
59070, 110, 408, -62, -26180, -66920, 29190, -478, 367, -241
59071, 100, 2, 25, -21420, -54320, 29610, -493, 360, -237
59072, -32, -160, 72, -17710, -44100, 29470, -480, 361, -255
59073, 6, 114, 122, -9800, -40950, 28350, -493, 369, -241
59074, 253, 309, 162, -1260, -33460, 28770, -489, 367, -247
59075, 472, 480, 231, 10290, -16800, 29750, -493, 364, -237
59076, 697, 863, 228, 21840, 3150, 31990, -490, 361, -252
59077, 893, 1596, 151, 29820, 20790, 34790, -492, 366, -237
59078, 647, 1960, -39, 22610, 24850, 36540, -498, 366, -240
59079, 327, 1505, -28, 7070, -5950, 31990, -510, 367, -238
59080, 73, 1304, -46, -9310, -46550, 26250, -499, 357, -235
59081, 217, 1229, -65, -20160, -76580, 22890, -505, 369, -240
59082, 303, 407, -73, -20510, -74130, 21070, -499, 361, -246
59083, 215, 139, 1, -17710, -58940, 21280, -511, 363, -256
59084, 105, 102, 52, -16870, -50680, 21210, -513, 363, -250
59085, 90, 434, 72, -16660, -51590, 21700, -511, 366, -241
59086, 247, 849, 165, -13930, -51030, 22610, -504, 367, -252
59087, 752, 1231, 294, 3570, -26740, 26740, -517, 372, -255
59088, 913, 1166, 203, 13720, -4690, 29820, -523, 369, -243
59089, 910, 932, 71, 20510, 16870, 32480, -516, 370, -246
59090, 587, 795, 4, 21910, 28210, 34160, -526, 367, -241
59091, 422, 775, -5, 17850, 23730, 34160, -517, 373, -241
59092, 337, 1070, -26, 7000, -3080, 31990, -526, 364, -246
59093, 306, 1049, -20, 4690, -7840, 30870, -514, 369, -235
59094, 290, 843, 2, 3500, -8120, 29890, -531, 375, -246
59095, 217, 684, 33, 1260, -11130, 29190, -541, 366, -244
59096, 364, 931, 7, -5530, -27860, 29960, -537, 369, -252
59097, 456, 1133, -19, -7840, -32550, 31570, -534, 363, -240
59098, 410, 1163, 9, -9380, -33110, 33180, -534, 367, -241
59099, 367, 1103, 61, -10920, -31150, 33670, -543, 373, -249
59100, 295, 1029, 134, -12460, -32480, 33530, -546, 370, -243
59101, 531, 815, 120, -10010, -36610, 32410, -550, 378, -241
59102, 739, 693, 86, -4270, -24220, 33390, -546, 369, -253
59103, 739, 657, 70, 2030, -6020, 35630, -543, 376, -250
59104, 714, 708, 43, 6020, 9100, 37380, -556, 370, -247
59105, 562, 840, 28, 6370, 13020, 38710, -553, 373, -250
59106, 424, 1024, 14, 770, -4200, 38360, -556, 373, -246
59107, 467, 940, 25, -1540, -13510, 37310, -565, 372, -243
59108, 383, 792, 38, -2030, -17010, 36610, -558, 376, -249
59109, 445, 650, 60, -1400, -18480, 36330, -568, 373, -246
59110, 363, 637, 54, 1400, -14490, 37800, -564, 375, -244
59111, 336, 669, 54, 2450, -13440, 39690, -564, 376, -241
59112, 347, 693, 46, 3010, -13790, 42210, -570, 367, -246
59113, 370, 766, 32, 2940, -13510, 44590, -579, 372, -241
59114, 394, 874, 20, 3010, -12390, 47110, -564, 366, -256
59115, 455, 1033, 76, 3220, -9590, 52220, -573, 369, -246
59116, 456, 1020, 50, 3360, -7630, 55090, -583, 375, -240
59117, 479, 955, 71, 3780, -4690, 58170, -580, 372, -232
59118, 423, 849, 24, 3850, -840, 60970, -589, 373, -249
59119, 350, 729, 39, 3920, 420, 65380, -592, 372, -241
59120, 333, 734, -11, 2170, -1890, 67200, -597, 378, -238
59121, 457, 871, -30, 1260, -1890, 69650, -591, 376, -246
59122, 554, 939, -24, 280, 1330, 72870, -595, 369, -247
59123, 505, 912, 7, -910, 5950, 76650, -612, 363, -255
59124, 213, 762, 40, -3150, -2240, 82670, -607, 373, -240
59125, 195, 620, 47, -2590, -10990, 85330, -610, 375, -249
59126, 85, 481, 53, -700, -19180, 87990, -613, 370, -246
59127, 87, 366, 44, 1260, -30310, 90440, -628, 367, -238
59128, 98, 329, 14, 3010, -39970, 92750, -625, 364, -253
59129, 255, 506, -42, 5390, -57750, 98560, -636, 369, -240
59130, 429, 692, -83, 6090, -63070, 102900, -637, 364, -235
59131, 524, 830, -111, 6440, -62230, 108010, -639, 366, -244
59132, 583, 899, -137, 6300, -56420, 113820, -655, 360, -247
59133, 581, 937, -157, 3290, -39410, 125090, -666, 364, -229
59134, 380, 770, -163, 1680, -33530, 129780, -666, 364, -231
59135, 278, 526, -149, 910, -29820, 133700, -672, 360, -229
59136, 220, 313, -133, 1400, -27020, 136990, -676, 355, -234
59137, 264, 193, -131, 2800, -24990, 140350, -682, 357, -228
59138, 408, 112, -145, 7070, -22120, 148680, -699, 345, -237
59139, 458, 107, -161, 9380, -20720, 153860, -708, 342, -231
59140, 468, 120, -187, 11270, -21560, 159530, -703, 342, -247
59141, 472, 122, -194, 12740, -23590, 165060, -709, 339, -225
59142, 447, 117, -220, 13580, -25900, 170380, -715, 330, -231
59143, 423, 85, -218, 13860, -32200, 179200, -726, 319, -228
59144, 455, 95, -227, 13930, -34580, 183120, -735, 318, -229
59145, 537, 92, -237, 14420, -36820, 186900, -739, 319, -220
59146, 758, 58, -218, 15610, -37730, 191310, -745, 303, -210
59147, 1210, 91, -215, 17780, -39970, 209930, -759, 288, -225
59148, 2678, 339, -278, 16030, -37940, 227780, -759, 288, -228
59149, 946, 110, -284, 11550, -41580, 241570, -771, 273, -220
59150, 705, -157, -167, 7770, -50330, 246750, -783, 264, -222
59151, 107, 84, -218, 6580, -48720, 247660, -781, 241, -217
59152, 346, -57, -148, 7840, -46620, 252910, -793, 234, -222
59153, 324, 413, -56, 7350, -42560, 259630, -790, 225, -219
59154, 1635, 643, -1977, 50050, -100940, -31570, -811, 208, -225
59155, 3997, 3321, 973, -333480, -687890, -1569890, -792, 241, -157
59156, 3997, -3997, -3997, 151060, 799890, -994350, -733, 313, -147
59157, 3997, -3997, -2541, -10080, 794570, 672980, -730, 337, -124
59158, 1041, 3786, -3997, 198590, -117810, 748370, -741, 301, -171
59159, -926, -2800, -3997, -33110, 235690, 152320, -768, 276, -177
59160, 965, 1303, 686, 103670, -105280, 830410, -772, 259, -193
59161, -3581, 872, 112, 25410, -60340, 414330, -790, 238, -208
59162, -427, 1106, -2126, 9590, 116550, -469770, -795, 231, -213
59163, 348, -1354, -2102, 4970, -67480, 228200, -774, 255, -214
59164, 2067, 1006, 462, 9170, 59850, -357420, -795, 241, -201
59165, 964, -288, -330, -11760, -61390, 182840, -768, 244, -201
59166, -1278, 76, -781, -5460, -18060, 192780, -783, 237, -196
59167, 2260, 188, 722, 23170, -15120, 30100, -780, 238, -205
59168, -1827, 391, -409, -9170, -39060, 16380, -790, 237, -195
59169, 3997, 141, 373, 2590, -20440, 15890, -789, 231, -196
59170, -1508, 1105, -516, 420, -20090, 32760, -790, 237, -210
59171, 310, -95, -111, -3220, -26950, -19390, -787, 232, -196
59172, 1960, -551, 97, -5320, -14700, -10640, -793, 241, -202
59173, 492, -124, -159, -3290, 6090, -3080, -789, 226, -193
59174, 1039, -24, 16, -980, 17360, 5670, -790, 231, -201
59175, 52, -25, 162, -1750, -1540, 7000, -786, 241, -195
59176, 1612, -27, 152, -1120, 12670, -3010, -790, 231, -214
59177, 845, 44, -22, -1610, 15400, -2870, -789, 237, -202
59178, 670, 116, -21, -630, 8190, -280, -789, 229, -201
59179, 629, 161, -24, 140, 1960, 2030, -783, 225, -201
59180, 1218, -96, 85, 350, -1890, -280, -786, 229, -201
59181, 905, -75, 43, 630, -1960, -1400, -796, 235, -195
59182, 871, 161, -95, 910, -1120, -70, -787, 237, -202
59183, 967, 135, 32, 560, -8050, 70, -796, 235, -195
59184, 1178, 75, 47, 70, -4480, -560, -789, 229, -207
59185, 997, 124, -58, 210, 7000, 350, -783, 231, -205
59186, 974, 120, 8, -420, 2100, 350, -784, 229, -196
59187, 1033, 92, 6, -210, 3640, 70, -795, 237, -193
59188, 967, -80, 106, -770, -140, -140, -784, 235, -201
59189, 945, 58, 37, -140, 280, -140, -787, 229, -202
59190, 993, 113, 2, 350, -350, -70, -781, 229, -214
59191, 949, 4, 56, -140, -4340, -210, -784, 232, -211
59192, 1059, 11, 34, 490, -770, 0, -786, 229, -213
59193, 961, 51, 13, 0, -1400, -210, -789, 232, -199
59194, 956, 72, 21, -280, -1190, -140, -796, 234, -205
59195, 1047, 28, 38, 0, 1820, 0, -792, 232, -201
59196, 957, 29, 21, -280, 1330, -70, -786, 232, -202
59197, 1014, 60, 26, 140, 2660, 0, -780, 228, -205
59198, 933, 67, 17, -210, 70, -70, -787, 231, -205
59199, 950, 29, 24, -70, -980, -140, -780, 231, -195
59200, 1028, 45, 36, 280, -140, -140, -786, 235, -202
59201, 960, 84, 0, 0, -910, -140, -784, 237, -205
59202, 1026, 48, 37, 70, -350, -70, -789, 238, -207
59203, 1023, 36, 41, 0, 1190, 0, -792, 244, -210
59204, 962, 71, 5, -70, 1050, 0, -786, 234, -196
59205, 1006, 40, 41, 0, 630, -70, -787, 237, -201
59206, 962, 48, 19, -70, 350, -70, -792, 234, -208
59207, 1005, 26, 49, 0, 0, -70, -790, 240, -199
59208, 1006, 44, 35, 70, -630, -140, -789, 231, -201
59209, 981, 59, 14, 70, -280, -70, -793, 225, -216
59210, 1009, 39, 38, 0, -70, -70, -795, 231, -207
59211, 981, 64, 12, 0, 700, -70, -786, 241, -207
59212, 1000, 47, 33, -70, 420, -70, -787, 238, -199
59213, 996, 35, 38, -70, 280, -70, -784, 234, -208
59214, 978, 53, 22, 70, 490, -70, -783, 232, -201
59215, 991, 43, 33, 0, -140, -70, -792, 237, -196
59216, 984, 55, 21, 0, 0, -70, -792, 234, -204
59217, 989, 56, 20, 70, 280, -70, -784, 237, -210
59218, 994, 49, 29, 0, 70, -140, -786, 220, -199
59219, 988, 54, 23, 70, 490, -70, -780, 217, -208
59220, 993, 45, 31, 0, 210, -70, -780, 232, -205
59221, 986, 50, 24, 0, 560, -70, -792, 231, -195
59222, 987, 49, 26, 0, 210, -70, -787, 229, -201
59223, 990, 45, 30, 0, -140, -70, -787, 228, -207
59224, 990, 51, 24, 70, 70, -70, -792, 234, -205
59225, 992, 50, 27, 70, 0, -70, -784, 235, -205
59226, 991, 51, 25, 70, 140, -70, -792, 240, -204
59227, 990, 50, 26, 0, 420, -70, -780, 228, -196
59228, 988, 49, 27, -70, 210, -140, -783, 237, -198
59229, 989, 49, 27, 0, 210, -70, -789, 231, -219
59230, 988, 47, 29, -70, 0, -70, -792, 232, -208
59231, 990, 50, 26, 0, 70, -70, -786, 231, -205
59232, 992, 51, 25, 70, 140, -70, -787, 241, -214
59233, 990, 49, 28, 0, 140, -70, -783, 234, -196
59234, 991, 49, 26, 70, 350, -70, -783, 235, -207
59235, 989, 49, 27, 70, 210, -70, -784, 238, -198
59236, 987, 48, 27, -70, 210, -70, -790, 226, -205
59237, 990, 48, 28, 0, 210, -70, -790, 240, -210
59238, 989, 50, 27, 70, 70, -70, -792, 241, -213
59239, 990, 50, 26, 0, 140, -70, -793, 234, -217
59240, 990, 51, 25, 70, 210, -70, -789, 238, -199
59241, 989, 49, 26, 0, 210, -70, -790, 241, -207
59242, 990, 49, 26, 70, 210, -70, -784, 226, -202
59243, 988, 50, 26, 70, 210, -140, -790, 217, -210
59244, 990, 48, 27, 0, 210, -70, -787, 237, -207
59245, 990, 48, 27, 0, 70, -70, -780, 232, -199
59246, 989, 50, 25, -70, 140, -70, -787, 234, -207
59247, 991, 49, 27, 0, 140, -70, -780, 231, -204
59248, 989, 50, 26, 0, 210, -70, -787, 235, -210
59249, 990, 49, 27, 70, 210, -70, -781, 240, -205
59250, 990, 48, 27, 70, 210, -70, -787, 238, -196
59251, 988, 50, 27, 0, 140, -70, -795, 235, -198
59252, 990, 49, 28, 70, 140, -70, -786, 237, -202
59253, 989, 49, 27, 0, 70, -70, -790, 229, -211
59254, 990, 49, 27, 0, 210, -140, -792, 234, -204
59255, 991, 49, 27, 0, 210, -70, -790, 229, -205
59256, 989, 49, 27, -70, 210, -70, -789, 241, -207
59257, 990, 49, 28, 70, 280, -70, -784, 231, -219
59258, 989, 49, 26, 0, 140, -140, -789, 241, -211
59259, 989, 49, 25, 0, 140, -70, -793, 243, -205
59260, 989, 49, 26, -70, 140, -70, -786, 226, -205
59261, 989, 50, 27, 0, 140, -70, -790, 232, -213
59262, 990, 50, 27, 0, 210, -70, -789, 231, -205
59263, 990, 50, 26, -70, 210, -70, -787, 229, -208
59264, 988, 48, 26, 0, 140, -70, -796, 240, -202
59265, 990, 49, 26, 0, 210, -70, -780, 232, -204
59266, 991, 51, 26, 0, 140, -70, -784, 237, -205
59267, 988, 50, 26, 0, 210, -70, -784, 240, -201
59268, 988, 49, 28, 0, 140, -70, -799, 237, -205
59269, 991, 50, 25, 70, 140, -70, -786, 243, -207
59270, 989, 49, 27, 0, 210, -70, -789, 232, -204
59271, 989, 49, 27, 0, 210, -70, -789, 234, -202
59272, 990, 49, 27, 0, 210, -70, -786, 229, -205
59273, 989, 49, 27, 0, 140, -70, -792, 231, -208
59274, 989, 49, 27, 70, 210, -70, -786, 237, -199
59275, 989, 49, 28, 0, 210, -140, -787, 240, -204
59276, 989, 50, 26, 0, 210, -70, -786, 232, -202
59277, 989, 50, 25, -70, 210, -70, -796, 223, -204
59278, 990, 49, 26, 0, 210, -70, -781, 240, -208
59279, 989, 48, 26, 0, 210, -70, -792, 229, -205
59280, 990, 49, 26, 0, 140, -70, -789, 225, -201
59281, 989, 50, 26, 0, 140, -70, -787, 234, -202
59282, 990, 49, 26, -70, 140, -70, -790, 234, -202
59283, 990, 49, 28, -70, 140, -70, -790, 234, -207
59284, 990, 50, 27, 0, 140, -70, -787, 243, -195
59285, 990, 49, 27, 70, 140, -70, -793, 238, -207
59286, 990, 50, 25, 0, 70, -70, -790, 237, -211
59287, 989, 50, 27, 0, 140, -70, -786, 235, -207
59288, 989, 50, 26, 70, 140, -70, -789, 225, -204
59289, 989, 49, 27, 0, 70, -70, -784, 234, -201
59290, 990, 50, 27, -70, 140, -70, -781, 226, -196
59291, 990, 50, 27, 70, 210, -70, -792, 235, -199
59292, 990, 49, 27, 0, 210, -70, -790, 232, -204
59293, 990, 49, 27, 70, 140, -70, -792, 244, -204
59294, 988, 49, 27, -70, 210, -140, -784, 232, -204
59295, 989, 49, 27, 0, 140, -70, -793, 234, -196
59296, 990, 50, 27, 0, 140, -70, -789, 229, -210
59297, 989, 49, 26, 70, 140, -70, -793, 237, -205
59298, 989, 49, 28, 0, 140, -70, -789, 244, -198
59299, 989, 49, 26, 70, 210, -70, -793, 226, -202
59300, 990, 49, 27, 70, 210, -70, -780, 228, -211
59301, 989, 49, 26, 0, 210, -70, -793, 241, -195
59302, 989, 49, 27, 0, 140, -70, -790, 229, -204
59303, 990, 49, 26, 0, 140, -70, -790, 235, -210
59304, 991, 49, 27, 0, 140, -70, -790, 229, -211
59305, 990, 50, 26, 0, 140, -70, -792, 235, -210
59306, 990, 49, 27, 0, 210, -70, -781, 238, -207
59307, 990, 49, 26, 0, 140, -70, -799, 237, -198
59308, 990, 49, 27, 0, 140, -70, -787, 235, -196
59309, 990, 50, 27, 70, 140, -140, -787, 228, -205
59310, 989, 50, 28, 0, 210, -70, -783, 231, -205
59311, 990, 49, 27, 0, 210, -140, -786, 232, -207
59312, 990, 49, 27, 0, 140, -70, -792, 234, -205
59313, 990, 49, 27, -70, 140, -70, -798, 235, -207
59314, 990, 50, 26, 0, 210, -70, -786, 241, -210
59315, 989, 49, 27, 0, 140, -70, -789, 240, -196
59316, 989, 49, 27, 0, 70, -70, -780, 234, -214
59317, 989, 49, 28, 0, 140, -70, -795, 234, -202
59318, 990, 49, 27, 70, 210, -140, -783, 231, -202
59319, 990, 50, 27, 0, 210, -140, -789, 232, -207
59320, 990, 50, 27, 0, 140, -140, -780, 223, -202
59321, 991, 50, 26, 0, 140, -70, -786, 232, -213
59322, 990, 48, 27, 0, 140, -70, -790, 240, -208
59323, 989, 48, 26, 0, 140, -70, -789, 243, -214
59324, 989, 49, 27, 0, 140, -70, -787, 237, -202
59325, 989, 49, 27, 0, 210, -70, -793, 240, -202
59326, 990, 50, 27, 0, 140, -140, -783, 234, -214
59327, 989, 50, 27, 0, 210, -70, -795, 241, -199
59328, 990, 49, 27, 0, 210, -70, -789, 232, -210
59329, 990, 49, 27, 0, 140, -70, -789, 232, -204
59330, 989, 49, 27, 0, 210, -70, -789, 238, -207
59331, 990, 49, 27, 70, 140, -70, -783, 234, -214
59332, 990, 50, 26, 0, 140, -70, -775, 231, -204
59333, 990, 49, 27, 0, 210, -70, -787, 232, -207
59334, 990, 50, 27, -70, 140, -70, -786, 238, -211
59335, 990, 49, 27, 0, 210, -70, -787, 234, -199
59336, 990, 49, 28, 70, 140, -70, -784, 234, -201
59337, 990, 50, 27, -70, 210, -70, -786, 231, -202
59338, 990, 48, 27, 0, 210, -70, -784, 235, -205
59339, 990, 49, 28, 70, 140, -70, -795, 229, -207
59340, 990, 49, 27, 0, 210, -70, -790, 229, -207
59341, 990, 48, 28, 0, 140, -70, -784, 237, -204
59342, 990, 49, 27, 70, 140, -70, -784, 235, -201
59343, 990, 49, 27, 70, 210, -70, -790, 234, -201
59344, 989, 49, 26, 0, 140, -70, -798, 243, -204
59345, 989, 49, 26, 70, 210, -70, -787, 234, -198
59346, 990, 49, 27, 0, 140, -70, -787, 238, -205
59347, 991, 49, 27, 70, 140, -70, -790, 229, -201
59348, 989, 49, 27, 0, 210, -70, -784, 235, -204
59349, 989, 49, 26, 0, 210, -70, -787, 234, -204
59350, 990, 49, 27, -70, 140, -70, -790, 240, -201
59351, 990, 49, 26, 0, 210, -70, -792, 232, -208
59352, 990, 49, 26, 70, 280, -70, -790, 231, -211
59353, 989, 49, 26, -70, 280, -70, -783, 232, -202
59354, 989, 50, 26, 0, 210, -70, -784, 241, -201
59355, 990, 49, 27, 70, 210, -70, -790, 240, -198
59356, 990, 49, 26, 70, 210, -70, -792, 240, -204
59357, 991, 50, 28, 0, 210, -70, -792, 229, -204
59358, 989, 50, 28, 0, 280, -70, -789, 241, -198
59359, 987, 49, 26, 70, 210, 0, -790, 232, -213
59360, 991, 48, 26, 70, 70, -70, -795, 241, -205
59361, 992, 48, 26, 0, 140, -70, -787, 237, -205
59362, 989, 51, 25, 70, 210, -70, -789, 235, -198
59363, 991, 50, 25, 0, 210, -70, -783, 225, -196
59364, 991, 47, 26, 0, 210, -70, -784, 228, -208
59365, 990, 48, 28, 0, 210, 0, -790, 237, -205
59366, 988, 49, 27, 0, 140, -70, -787, 243, -217
59367, 990, 48, 27, 0, 140, -70, -778, 241, -199
59368, 990, 49, 26, 0, 140, -70, -784, 234, -207
59369, 990, 50, 26, 0, 210, -70, -781, 235, -204
59370, 989, 50, 27, 0, 140, -70, -783, 235, -208
59371, 990, 49, 27, 70, 210, -70, -790, 238, -211
59372, 989, 50, 27, 70, 140, -70, -789, 231, -199
59373, 989, 49, 27, 0, 140, -70, -793, 243, -198
59374, 989, 49, 27, 0, 70, -70, -792, 241, -205
59375, 989, 48, 26, 0, 70, -70, -789, 231, -205
59376, 990, 50, 28, 70, 140, -140, -783, 226, -204
59377, 989, 50, 27, -70, 140, -70, -786, 243, -205
59378, 990, 49, 27, 0, 210, -70, -796, 232, -210
59379, 990, 49, 27, 0, 210, -70, -787, 243, -205
59380, 989, 49, 26, 0, 140, -140, -789, 232, -216
59381, 989, 49, 26, 0, 140, 0, -789, 243, -193
59382, 989, 49, 27, 70, 140, -70, -783, 235, -202
59383, 989, 50, 27, 70, 140, -70, -792, 235, -198
59384, 989, 49, 27, 0, 140, -70, -792, 229, -207
59385, 989, 49, 26, 0, 210, -70, -795, 232, -201
59386, 990, 49, 27, 0, 140, -70, -784, 235, -201
59387, 989, 49, 27, 70, 140, -70, -789, 225, -196
59388, 989, 49, 27, 70, 140, 0, -790, 232, -210
59389, 990, 49, 26, 0, 140, -70, -796, 231, -211
59390, 990, 49, 26, 0, 140, -70, -792, 234, -208
59391, 990, 49, 26, 0, 140, -70, -801, 231, -201
59392, 990, 49, 26, 0, 210, -70, -792, 237, -202
59393, 989, 48, 27, 0, 140, -140, -790, 246, -201
59394, 990, 50, 26, 0, 140, -70, -783, 240, -202
59395, 989, 49, 27, -70, 140, -70, -787, 238, -198
59396, 989, 49, 26, 70, 210, -70, -789, 228, -205
59397, 990, 49, 26, 0, 140, -70, -789, 237, -208
59398, 990, 49, 26, -70, 210, -140, -789, 232, -198
59399, 990, 49, 25, 0, 140, -70, -784, 232, -205
59400, 990, 49, 26, 0, 140, -70, -787, 234, -210
59401, 990, 50, 28, 0, 140, -70, -784, 238, -196
59402, 989, 49, 27, -70, 210, -140, -784, 219, -199
59403, 990, 49, 27, 0, 140, -70, -786, 244, -201
59404, 990, 49, 27, 0, 140, -70, -784, 240, -202
59405, 989, 49, 26, 0, 70, -140, -793, 237, -198
59406, 990, 49, 27, 0, 210, -70, -789, 240, -205
59407, 989, 49, 27, 70, 140, -70, -789, 237, -192
59408, 989, 50, 27, 0, 210, -70, -784, 237, -204
59409, 990, 50, 27, 70, 140, -70, -793, 240, -192
59410, 990, 50, 27, 0, 140, -70, -793, 237, -199
59411, 989, 49, 27, 0, 140, -70, -787, 237, -213
59412, 989, 49, 27, -70, 140, -70, -787, 234, -205
59413, 990, 49, 27, 0, 210, -70, -786, 241, -193
59414, 989, 50, 27, -70, 140, -140, -793, 231, -201
59415, 990, 49, 26, -70, 140, -70, -778, 238, -207
59416, 990, 50, 28, 0, 210, -70, -789, 228, -198
59417, 989, 48, 27, -70, 140, -70, -789, 229, -201
59418, 990, 49, 27, 0, 140, -70, -781, 241, -204
59419, 990, 49, 27, 0, 210, -70, -781, 231, -199
59420, 990, 49, 27, 0, 210, -70, -792, 229, -207
59421, 989, 49, 27, -70, 210, -70, -789, 231, -198
59422, 990, 49, 27, 0, 140, 0, -795, 232, -216
59423, 990, 49, 28, -70, 210, -70, -787, 226, -202
59424, 989, 48, 28, 0, 140, -70, -787, 235, -211
59425, 990, 48, 26, 0, 70, -70, -787, 237, -195
59426, 991, 49, 27, 70, 70, -70, -783, 243, -207
59427, 989, 50, 27, 70, 140, -70, -790, 229, -201
59428, 990, 50, 27, 0, 140, -70, -796, 225, -202
59429, 990, 48, 26, 70, 140, -70, -790, 235, -201
59430, 989, 49, 27, 0, 210, -140, -789, 228, -204
59431, 989, 49, 28, 0, 210, -70, -780, 232, -210
59432, 990, 48, 26, -70, 210, -70, -787, 234, -208
59433, 990, 48, 27, 0, 140, -70, -787, 234, -210
59434, 990, 50, 27, 70, 210, -70, -792, 232, -214
59435, 989, 50, 27, 0, 140, -70, -792, 232, -204
59436, 990, 49, 28, 70, 210, -140, -799, 235, -205
59437, 990, 49, 26, 0, 210, -70, -793, 237, -202
59438, 989, 49, 27, 0, 140, -70, -792, 226, -208
59439, 990, 49, 26, 0, 210, -70, -793, 229, -210
59440, 989, 50, 26, 0, 140, -70, -796, 237, -216
59441, 990, 49, 27, 0, 140, -70, -787, 231, -207
59442, 990, 49, 27, 0, 140, -70, -787, 238, -217
59443, 989, 50, 27, 0, 140, 0, -790, 231, -208
59444, 990, 49, 28, 0, 140, -70, -796, 238, -202
59445, 990, 49, 27, 70, 210, 0, -790, 231, -205
59446, 990, 50, 27, 0, 140, -70, -790, 246, -214
59447, 989, 49, 27, 0, 210, -70, -787, 243, -199
59448, 989, 49, 27, 0, 140, -70, -786, 223, -210
59449, 989, 49, 26, 70, 140, -70, -789, 238, -213
59450, 990, 49, 26, 0, 210, -70, -790, 244, -205
59451, 990, 49, 27, 0, 140, -70, -792, 237, -214
59452, 990, 49, 26, 0, 210, -70, -793, 228, -211
59453, 991, 50, 27, 0, 140, -70, -789, 232, -211
59454, 989, 49, 27, 0, 210, -70, -793, 237, -201
59455, 990, 50, 28, 0, 70, -70, -787, 231, -211
59456, 989, 50, 26, 0, 140, -70, -787, 229, -196
59457, 989, 49, 27, 0, 210, -70, -792, 237, -204
59458, 990, 50, 27, 0, 210, -70, -786, 235, -205
59459, 989, 49, 26, 0, 140, -70, -789, 231, -216
59460, 989, 50, 27, 0, 210, 0, -793, 231, -207
59461, 990, 50, 26, 0, 140, -70, -792, 234, -207
59462, 989, 50, 27, 0, 140, -70, -780, 231, -198
59463, 989, 48, 27, 0, 140, -70, -792, 235, -207
59464, 990, 49, 28, 0, 210, -70, -793, 226, -211
59465, 990, 49, 28, 0, 210, -70, -799, 237, -210
59466, 991, 50, 27, 0, 210, -70, -792, 243, -208
59467, 989, 49, 27, 0, 140, -70, -798, 237, -202
59468, 990, 49, 28, 0, 210, -70, -786, 228, -205
59469, 990, 49, 27, 70, 140, -70, -783, 235, -204
59470, 990, 49, 27, 0, 140, -70, -783, 229, -208
59471, 990, 49, 27, -70, 140, -70, -790, 229, -204
59472, 990, 49, 26, -70, 140, -70, -786, 228, -207
59473, 990, 49, 27, 70, 210, -70, -780, 235, -205
59474, 989, 49, 27, 0, 140, -70, -792, 232, -210
59475, 990, 49, 26, 0, 140, -70, -786, 240, -196
59476, 989, 49, 26, -70, 140, -70, -784, 234, -204
59477, 990, 49, 28, 0, 140, -70, -784, 232, -199
59478, 989, 49, 28, 0, 140, -70, -786, 232, -204
59479, 989, 49, 26, 0, 140, -70, -790, 232, -208
59480, 990, 49, 28, 0, 210, -70, -786, 226, -202
59481, 990, 49, 27, 0, 210, -140, -798, 240, -187
59482, 990, 50, 28, 0, 140, -70, -789, 229, -205
59483, 990, 50, 28, 0, 210, -70, -789, 228, -193
59484, 990, 49, 27, -70, 140, -70, -790, 235, -205
59485, 990, 49, 27, 0, 140, -70, -790, 223, -211
59486, 990, 49, 27, 70, 140, -70, -787, 237, -210
59487, 990, 48, 26, 0, 210, -70, -792, 234, -202
59488, 990, 49, 27, -70, 210, -70, -790, 226, -205
59489, 990, 49, 27, 0, 140, -70, -796, 240, -196
59490, 990, 49, 27, 0, 210, -70, -789, 232, -208
59491, 990, 50, 26, 0, 210, -70, -783, 232, -205
59492, 989, 49, 27, 0, 140, -70, -781, 232, -204
59493, 990, 49, 27, 0, 140, -70, -792, 229, -204
59494, 989, 49, 27, 0, 140, -140, -783, 235, -214
59495, 990, 48, 26, 0, 210, -70, -793, 241, -204
59496, 989, 50, 27, 0, 210, -140, -787, 228, -211
59497, 990, 49, 26, 0, 140, -70, -798, 240, -204
59498, 989, 49, 26, 0, 140, -70, -789, 240, -199
59499, 989, 49, 27, 0, 210, -70, -789, 232, -208
59500, 990, 49, 26, 0, 140, -70, -787, 231, -211
59501, 990, 49, 27, -70, 210, -70, -787, 235, -196
59502, 990, 48, 27, -70, 140, -70, -790, 244, -208
59503, 990, 49, 27, -70, 140, -70, -789, 234, -208
59504, 989, 49, 27, -70, 210, -70, -786, 232, -208
59505, 989, 49, 28, 0, 140, -140, -793, 244, -202
59506, 989, 50, 27, 0, 140, -70, -789, 234, -208
59507, 990, 49, 26, -70, 210, -70, -793, 244, -205
59508, 990, 49, 26, 70, 210, -70, -790, 244, -204
59509, 990, 49, 27, 0, 140, -70, -790, 247, -205
59510, 990, 49, 27, 70, 140, -70, -783, 231, -210
59511, 989, 49, 27, 70, 140, -70, -798, 244, -196
59512, 990, 49, 27, 0, 210, -70, -790, 228, -202
59513, 990, 49, 28, 0, 140, -70, -792, 235, -201
59514, 990, 50, 26, 0, 140, -70, -793, 235, -205
59515, 990, 49, 26, 0, 140, -70, -787, 235, -201
59516, 990, 50, 28, 0, 140, -70, -784, 237, -207
59517, 989, 49, 27, 0, 140, -70, -777, 237, -205
59518, 990, 49, 26, 70, 210, -140, -795, 238, -205
59519, 990, 49, 27, 0, 140, -70, -795, 237, -202
59520, 989, 49, 27, 0, 140, -70, -789, 235, -205
59521, 990, 49, 27, 0, 70, -70, -795, 237, -204
59522, 990, 49, 27, 70, 140, -70, -790, 232, -202
59523, 990, 49, 26, 0, 140, -70, -792, 231, -199
59524, 989, 49, 26, 0, 140, -70, -789, 237, -213
59525, 989, 49, 26, 0, 210, -70, -789, 237, -205
59526, 989, 50, 27, 0, 210, -70, -790, 235, -205
59527, 990, 49, 27, 0, 140, -70, -786, 232, -201
59528, 990, 49, 27, -70, 210, -70, -787, 241, -208
59529, 990, 49, 26, 0, 140, -70, -784, 225, -199
59530, 990, 49, 28, 0, 210, -70, -789, 231, -207
59531, 990, 50, 27, 0, 210, -70, -790, 238, -211
59532, 990, 49, 27, 0, 210, -70, -786, 235, -199
59533, 990, 48, 28, 0, 140, -140, -783, 234, -207
59534, 989, 49, 27, 70, 210, -70, -784, 229, -211
59535, 990, 48, 28, 0, 210, -70, -789, 231, -204
59536, 990, 50, 27, 0, 140, -70, -790, 232, -205
59537, 990, 49, 27, 0, 210, -70, -787, 235, -207
59538, 990, 49, 27, 0, 140, -70, -787, 229, -199
59539, 990, 49, 27, -70, 140, -140, -778, 232, -208
59540, 990, 49, 26, 0, 210, -70, -790, 229, -207
59541, 990, 49, 27, -70, 140, -70, -787, 235, -201
59542, 989, 48, 27, -70, 140, -70, -790, 229, -205
59543, 989, 49, 26, 0, 140, -70, -787, 238, -199
59544, 989, 49, 28, 0, 210, -70, -792, 237, -208
59545, 989, 49, 27, 0, 210, -70, -786, 235, -202
59546, 989, 49, 27, 0, 140, -70, -792, 234, -205
59547, 989, 49, 28, 0, 210, -70, -789, 235, -208
59548, 990, 49, 27, 0, 140, -70, -784, 237, -210
59549, 989, 49, 26, 0, 140, -70, -780, 232, -207
59550, 990, 49, 27, 0, 140, -70, -783, 241, -205
59551, 989, 49, 26, 0, 140, -70, -783, 228, -208
59552, 990, 50, 26, -70, 140, -70, -792, 234, -202
59553, 990, 49, 27, 0, 210, -70, -787, 235, -204
59554, 990, 49, 27, 0, 140, -70, -786, 229, -204
59555, 990, 49, 27, 0, 210, -70, -792, 231, -207
59556, 989, 49, 27, 70, 140, -70, -790, 232, -208
59557, 989, 50, 27, 70, 210, -140, -786, 232, -201
59558, 990, 50, 27, 0, 140, -140, -786, 244, -204
59559, 988, 49, 27, 70, 210, -70, -799, 238, -210
59560, 990, 48, 27, 0, 140, -70, -787, 237, -216
59561, 990, 50, 26, 0, 140, -70, -792, 235, -213
59562, 990, 50, 27, -70, 210, -70, -787, 232, -204
59563, 989, 49, 27, 0, 140, -70, -798, 228, -201
59564, 989, 49, 27, 0, 140, -70, -787, 241, -211
59565, 990, 48, 27, 0, 140, -70, -786, 231, -205
59566, 990, 49, 27, 70, 140, -70, -784, 234, -211
59567, 990, 50, 28, -70, 140, -70, -792, 231, -201
59568, 991, 50, 27, 0, 140, -70, -783, 234, -201
59569, 989, 49, 27, 0, 210, -70, -792, 226, -204
59570, 990, 49, 27, 0, 210, -70, -795, 232, -207
59571, 990, 49, 27, -70, 210, -70, -789, 234, -207
59572, 989, 49, 26, 0, 140, -70, -783, 229, -205
59573, 990, 49, 28, 70, 140, -70, -789, 243, -210
59574, 990, 49, 27, 0, 140, -70, -783, 232, -205
59575, 989, 49, 26, 0, 210, -70, -787, 229, -204
59576, 990, 49, 28, 0, 140, -70, -781, 235, -216
59577, 989, 49, 27, -70, 140, -70, -793, 232, -199
59578, 989, 49, 27, 0, 70, -70, -787, 229, -202
59579, 988, 50, 27, -70, 140, -70, -790, 226, -202
59580, 992, 48, 27, 0, 140, -70, -783, 234, -202
59581, 990, 47, 27, -70, 210, -70, -786, 231, -202
59582, 987, 49, 28, 0, 140, -70, -793, 240, -208
59583, 990, 51, 27, 0, 70, -70, -793, 234, -193
59584, 990, 49, 26, -70, 210, -70, -784, 235, -202
59585, 991, 49, 28, 0, 210, -140, -790, 225, -207
59586, 988, 49, 27, 0, 70, -70, -787, 226, -205
59587, 990, 49, 27, 0, 210, -70, -787, 234, -201
59588, 990, 49, 27, -70, 140, -70, -787, 231, -199
59589, 990, 50, 27, 70, 140, -70, -784, 231, -205
59590, 990, 49, 27, 0, 140, -70, -783, 231, -202
59591, 989, 49, 27, 0, 70, -140, -790, 231, -214
59592, 990, 50, 27, 0, 140, -70, -783, 229, -202
59593, 990, 49, 27, 0, 210, -70, -796, 229, -207
59594, 990, 48, 27, -70, 210, -70, -784, 231, -205
59595, 990, 49, 28, 0, 140, -70, -793, 226, -204
59596, 990, 50, 27, 0, 140, -140, -784, 238, -205
59597, 990, 50, 27, 0, 140, -140, -789, 229, -210
59598, 991, 49, 26, 0, 140, -70, -786, 237, -207
59599, 990, 49, 27, 0, 140, -70, -789, 235, -198
59600, 990, 49, 26, 0, 70, -70, -798, 241, -204
59601, 990, 49, 27, -70, 140, -70, -793, 225, -207
59602, 989, 49, 26, 0, 140, -70, -793, 229, -208
59603, 990, 49, 26, 0, 140, -70, -798, 234, -216
59604, 990, 49, 27, 0, 210, -70, -789, 234, -214
59605, 990, 50, 27, -70, 210, -70, -784, 226, -204
59606, 989, 49, 26, 0, 140, -70, -787, 234, -208
59607, 990, 49, 28, -70, 210, -70, -790, 235, -199
59608, 958, 51, 27, -70, -70, -70, -783, 231, -196
59609, 735, -39, 91, -140, -9660, -280, -783, 235, -201
59610, 945, -82, 94, 1610, -16590, -630, -786, 238, -202
59611, 1081, -17, 33, 1750, -19740, -1260, -793, 247, -207
59612, 1057, 69, -2, 1960, -13230, -980, -792, 225, -205
59613, 1039, 166, -17, 910, -8050, -630, -796, 228, -199
59614, 1032, 99, -15, 420, -5600, -280, -786, 231, -213
59615, 1092, 37, 3, 70, -490, 0, -792, 237, -198
59616, 1065, 66, -14, -280, 3710, -210, -796, 238, -201
59617, 1037, 111, -11, -980, 10570, 420, -790, 229, -196
59618, 1010, 86, 5, -1120, 13370, 700, -798, 232, -199
59619, 1001, 42, 19, -1190, 14280, 700, -790, 229, -202
59620, 959, 18, 31, -1330, 13720, 630, -786, 241, -204
59621, 939, 15, 36, -1190, 11200, 490, -781, 226, -208
59622, 930, 9, 60, -490, 3360, 140, -789, 234, -207
59623, 948, -5, 62, 0, 350, 0, -783, 229, -222
59624, 951, 24, 44, 210, -1820, -210, -787, 231, -211
59625, 991, 46, 18, 490, -2940, 70, -783, 237, -199
59626, 984, 65, 19, 350, -3920, -280, -790, 231, -210
59627, 998, 50, 22, 140, -2730, -280, -793, 235, -198
59628, 1015, 65, 16, 70, -1050, -280, -783, 235, -201
59629, 1001, 73, 12, 70, -280, -70, -790, 231, -192
59630, 976, 52, 24, 0, -70, -140, -786, 231, -207
59631, 995, 36, 30, 70, -700, -140, -789, 232, -205
59632, 992, 47, 23, 140, -980, -280, -789, 232, -210
59633, 997, 55, 20, 70, -1050, -210, -787, 237, -213
59634, 998, 58, 21, 70, -490, -210, -798, 237, -210
59635, 1001, 59, 21, 70, 210, -140, -789, 237, -201
59636, 1001, 55, 19, -140, 1680, -140, -790, 238, -202
59637, 999, 52, 21, -210, 2100, -140, -790, 234, -199
59638, 990, 51, 25, -140, 2450, -140, -790, 244, -202
59639, 984, 52, 26, -210, 2450, -140, -787, 237, -205
59640, 981, 50, 26, -210, 2030, -70, -793, 235, -205
59641, 984, 43, 28, -140, 1400, -70, -792, 234, -210
59642, 985, 45, 27, -140, 1050, -140, -780, 238, -216
59643, 978, 46, 28, 0, 490, -210, -780, 237, -202
59644, 979, 45, 31, 0, -70, -140, -792, 237, -208
59645, 982, 42, 30, 70, -1260, -140, -795, 232, -195
59646, 983, 43, 27, 70, -1890, -210, -790, 231, -210
59647, 985, 45, 27, 140, -2240, -280, -787, 226, -199
59648, 988, 47, 26, 140, -2450, -280, -793, 235, -207
59649, 992, 52, 24, 210, -2450, -280, -792, 229, -199
59650, 997, 57, 20, 70, -1540, -210, -793, 243, -199
59651, 1000, 59, 19, 70, -980, -140, -790, 234, -202
59652, 999, 59, 19, -70, -210, -70, -796, 246, -207
59653, 996, 56, 21, 0, 490, 0, -784, 232, -202
59654, 995, 53, 22, -70, 910, 0, -789, 240, -205
59655, 991, 49, 24, -140, 1190, 0, -789, 229, -207
59656, 987, 49, 25, 0, 1260, 0, -784, 229, -204
59657, 986, 49, 25, -70, 1050, 0, -781, 234, -214
59658, 986, 49, 26, -70, 840, -70, -789, 240, -202
59659, 986, 46, 25, -70, 420, -70, -792, 229, -205
59660, 987, 48, 25, -70, 210, -70, -784, 235, -210
59661, 986, 49, 25, 0, 70, -140, -787, 238, -198
59662, 989, 49, 24, 0, 0, -70, -787, 238, -199
59663, 989, 50, 24, -70, 70, -70, -795, 229, -214
59664, 990, 50, 24, 0, 140, -70, -789, 226, -208
59665, 990, 50, 25, -70, 210, -70, -787, 234, -198
59666, 990, 49, 24, 0, 210, 0, -793, 231, -202
59667, 989, 51, 24, -70, 210, -70, -786, 229, -213
59668, 989, 50, 25, 0, 140, 0, -792, 234, -202
59669, 989, 48, 25, 0, 70, -70, -792, 241, -207
59670, 990, 50, 24, 0, 140, -70, -793, 232, -202
59671, 988, 50, 24, 0, 0, -70, -786, 240, -201
59672, 989, 49, 25, 0, 0, -70, -787, 228, -205
59673, 989, 50, 23, 70, 70, 0, -796, 234, -201
59674, 989, 50, 23, 0, 0, 0, -778, 235, -210
59675, 989, 50, 24, 0, 0, 0, -795, 229, -202
59676, 990, 49, 24, 0, 0, 0, -784, 235, -214
59677, 989, 49, 24, 0, -70, -70, -796, 231, -205
59678, 988, 47, 25, 70, -280, -70, -795, 226, -201
59679, 988, 47, 24, 70, -350, -70, -790, 235, -210
59680, 991, 50, 23, 70, -350, -70, -781, 229, -207
59681, 992, 52, 23, 0, -280, -70, -792, 232, -201
59682, 995, 51, 23, 70, 0, -70, -790, 229, -207
59683, 994, 53, 22, 0, 560, 0, -784, 231, -202
59684, 992, 51, 22, 0, 840, -70, -792, 235, -216
59685, 991, 50, 24, 0, 980, 0, -792, 223, -198
59686, 989, 49, 23, -140, 980, 0, -787, 232, -207
59687, 987, 49, 25, 0, 770, 0, -790, 240, -196
59688, 988, 48, 25, 0, 700, 0, -786, 234, -208
59689, 987, 48, 25, 0, 630, 0, -795, 240, -196
59690, 990, 48, 24, 0, 490, 0, -787, 226, -213
59691, 988, 49, 24, -70, 490, -70, -789, 234, -207
59692, 988, 49, 24, 0, 420, -70, -790, 243, -201
59693, 988, 48, 25, 0, 350, 0, -789, 232, -201
59694, 988, 48, 25, 0, 280, -70, -792, 229, -207
59695, 986, 48, 25, 0, 140, -70, -792, 229, -198
59696, 986, 47, 25, 0, -350, -70, -783, 225, -204
59697, 986, 48, 25, 70, -490, -70, -780, 240, -204
59698, 989, 48, 24, 70, -700, -70, -789, 240, -210
59699, 990, 49, 26, 140, -770, -140, -789, 243, -208
59700, 995, 50, 24, 70, -770, -70, -792, 228, -204
59701, 997, 55, 20, 70, 0, -140, -784, 237, -202
59702, 997, 55, 19, -70, 490, -70, -792, 225, -201
59703, 995, 54, 21, -140, 910, 0, -786, 231, -204
59704, 991, 50, 23, -70, 1120, 0, -787, 231, -204
59705, 992, 48, 25, 0, 1190, -70, -780, 234, -201
59706, 989, 51, 24, -70, 1260, 0, -798, 234, -207
59707, 987, 50, 25, -70, 1190, -70, -786, 232, -208
59708, 985, 47, 27, -70, 980, -70, -784, 238, -214
59709, 985, 45, 27, 0, 770, -70, -792, 238, -207
59710, 985, 46, 27, -70, 70, -70, -789, 237, -204
59711, 983, 46, 27, 70, -280, -70, -795, 235, -205
59712, 986, 47, 27, 70, -560, -70, -787, 232, -207
59713, 986, 47, 26, 70, -840, -70, -787, 234, -202
59714, 984, 47, 26, 70, -1120, -70, -786, 225, -204
59715, 978, 42, 29, 210, -2520, -210, -783, 234, -195
59716, 993, 35, 27, 280, -2660, -140, -787, 222, -208
59717, 1009, 52, 18, 280, -1890, -210, -790, 226, -202
59718, 1010, 71, 12, 140, -910, -210, -790, 232, -201
59719, 1001, 70, 13, 0, -70, -140, -790, 238, -198
59720, 1015, 53, 19, -210, 2590, -140, -786, 238, -204
59721, 1003, 56, 16, -210, 3570, -140, -789, 238, -202
59722, 999, 58, 21, -210, 3990, -210, -787, 226, -202
59723, 994, 53, 25, -280, 3850, -280, -777, 234, -217
59724, 1003, 45, 27, -280, 3430, -1120, -793, 237, -208
59725, 1067, 28, 24, -280, 3220, -2100, -795, 240, -199
59726, 1126, 3, 25, -210, 3920, -3850, -792, 231, -202
59727, 1164, -21, 24, 0, 5810, -6020, -792, 231, -202
59728, 1167, -33, 24, 280, 7980, -8470, -789, 240, -208
59729, 1092, -6, 25, 560, 9940, -13020, -789, 223, -202
59730, 1068, 20, 24, 490, 8890, -15120, -780, 235, -199
59731, 1049, 35, 22, 280, 7070, -17010, -787, 235, -211
59732, 1039, 34, 23, 0, 4900, -18690, -787, 238, -214
59733, 1027, 28, 26, -140, 2520, -20230, -787, 234, -198
59734, 1020, 40, 31, -630, -1890, -22750, -786, 244, -214
59735, 1019, 52, 31, -770, -3150, -23730, -786, 241, -202
59736, 1022, 60, 32, -840, -3920, -24570, -784, 246, -202
59737, 1022, 64, 30, -910, -4340, -25480, -787, 246, -199
59738, 1028, 65, 27, -1120, -5040, -27160, -790, 252, -202
59739, 1066, 74, 23, -1190, -4620, -28210, -780, 246, -210
59740, 1094, 74, 24, -1190, -3010, -29400, -778, 252, -211
59741, 1119, 71, 23, -1190, -280, -30730, -775, 243, -208
59742, 1127, 70, 21, -1190, 2870, -32200, -777, 255, -204
59743, 1107, 76, 19, -980, 8890, -35210, -784, 256, -196
59744, 1091, 82, 20, -980, 11130, -36610, -783, 256, -207
59745, 1086, 91, 23, -910, 12740, -38080, -780, 256, -189
59746, 1083, 98, 27, -980, 14140, -39480, -766, 258, -205
59747, 1084, 103, 30, -910, 15610, -40880, -777, 258, -205
59748, 1084, 107, 35, -700, 18970, -43750, -766, 268, -202
59749, 1072, 109, 38, -630, 20510, -45220, -771, 268, -217
59750, 1063, 112, 38, -560, 21420, -46620, -771, 270, -210
59751, 1046, 116, 41, -420, 21560, -48090, -775, 264, -207
59752, 1047, 132, 46, -490, 19740, -51100, -763, 270, -204
59753, 1057, 142, 48, -630, 18760, -52640, -765, 279, -204
59754, 1051, 153, 45, -700, 17710, -54180, -760, 285, -207
59755, 1035, 161, 40, -910, 15750, -55650, -754, 282, -199
59756, 1046, 163, 45, -1190, 13440, -57190, -754, 279, -211
59757, 1081, 167, 59, -1750, 10220, -60130, -753, 286, -216
59758, 1072, 173, 64, -1890, 9590, -61390, -759, 288, -205
59759, 1080, 175, 71, -1890, 9450, -62860, -751, 295, -217
59760, 1069, 180, 73, -1820, 9730, -64190, -747, 294, -208
59761, 1070, 192, 71, -1750, 10430, -65730, -745, 295, -199
59762, 1071, 225, 63, -1680, 12950, -68600, -753, 301, -205
59763, 1071, 251, 57, -1540, 14630, -70000, -742, 306, -207
59764, 1088, 305, 54, -1820, 16170, -71050, -741, 303, -207
59765, 1186, 400, 44, -2310, 16450, -70770, -736, 303, -211
59766, 1270, 475, 2, -5180, 10850, -66850, -729, 310, -205
59767, 1098, 418, -7, -7140, 4550, -65380, -727, 313, -210
59768, 899, 365, -19, -8540, 0, -65450, -724, 316, -201
59769, 875, 340, -7, -8960, 210, -66570, -724, 319, -211
59770, 905, 322, 18, -8610, 5530, -68110, -717, 319, -207
59771, 1007, 275, 86, -7910, 16100, -70070, -714, 324, -202
59772, 1055, 285, 105, -7910, 17920, -70070, -714, 339, -214
59773, 1057, 316, 110, -7770, 19530, -69510, -715, 340, -210
59774, 1030, 332, 116, -7210, 22190, -68810, -717, 334, -217
59775, 952, 332, 124, -6160, 25830, -68460, -703, 336, -214
59776, 818, 324, 158, -3430, 31920, -68390, -697, 337, -216
59777, 810, 361, 168, -1470, 34370, -68040, -697, 337, -214
59778, 847, 403, 162, 840, 37450, -67200, -694, 346, -216
59779, 841, 417, 136, 2940, 40530, -65730, -694, 339, -222
59780, 683, 352, 89, 3990, 35420, -63490, -687, 334, -210
59781, 637, 369, 81, 2590, 25830, -63350, -676, 340, -225
59782, 619, 434, 82, 980, 15610, -63700, -679, 346, -219
59783, 635, 493, 102, -350, 7420, -63840, -684, 352, -216
59784, 641, 515, 131, -910, 1610, -63700, -687, 351, -226
59785, 682, 511, 154, -1120, -7420, -62160, -679, 348, -214
59786, 691, 499, 145, -1260, -11410, -60760, -679, 351, -222
59787, 658, 483, 138, -1680, -15400, -59360, -676, 364, -220
59788, 622, 475, 136, -2380, -19880, -58030, -672, 355, -222
59789, 602, 500, 136, -3220, -24640, -57050, -667, 355, -219
59790, 667, 586, 153, -4550, -29750, -54880, -667, 355, -222
59791, 700, 605, 161, -4830, -29050, -53620, -655, 363, -216
59792, 712, 608, 165, -4900, -28140, -52360, -655, 366, -217
59793, 726, 594, 164, -4970, -27230, -51170, -660, 364, -204
59794, 723, 571, 145, -5600, -25480, -48720, -652, 364, -208
59795, 712, 568, 144, -5880, -24150, -47670, -663, 369, -216
59796, 716, 571, 150, -5950, -22400, -46620, -649, 366, -211
59797, 724, 583, 156, -5740, -19880, -45710, -646, 373, -211
59798, 754, 593, 159, -5390, -16660, -44870, -651, 366, -208
59799, 770, 607, 149, -4550, -10360, -43260, -652, 369, -226
59800, 759, 618, 143, -4480, -8120, -42630, -649, 373, -213
59801, 739, 630, 135, -4550, -6650, -42000, -645, 369, -213
59802, 722, 641, 130, -4830, -6230, -41650, -640, 369, -213
59803, 718, 650, 128, -5250, -6090, -41020, -643, 369, -220
59804, 734, 644, 125, -5460, -4480, -40670, -633, 366, -210
59805, 741, 637, 122, -5320, -2170, -40110, -631, 382, -217
59806, 749, 627, 118, -4900, 980, -39550, -631, 379, -210
59807, 748, 622, 115, -4410, 4480, -38990, -636, 376, -210
59808, 719, 643, 107, -3430, 10780, -38080, -631, 369, -216
59809, 709, 659, 103, -3150, 12390, -37870, -625, 379, -216
59810, 691, 671, 99, -3080, 12810, -37660, -630, 373, -223
59811, 686, 680, 94, -3150, 12040, -37520, -627, 378, -220
59812, 668, 684, 94, -3290, 10290, -37450, -613, 373, -223
59813, 656, 688, 100, -3920, 5460, -37450, -628, 379, -214
59814, 660, 689, 102, -4060, 3430, -37590, -621, 363, -222
59815, 657, 691, 106, -4340, 1680, -37520, -622, 375, -223
59816, 662, 694, 112, -4410, 0, -37520, -618, 382, -219
59817, 655, 698, 115, -4760, -2450, -37380, -619, 385, -225
59818, 657, 708, 121, -4900, -2870, -37170, -615, 376, -226
59819, 654, 709, 123, -4900, -2520, -36960, -600, 376, -222
59820, 655, 710, 126, -4970, -1820, -36680, -604, 379, -229
59821, 653, 712, 129, -4830, -910, -36400, -607, 379, -220
59822, 651, 722, 130, -4620, 1400, -35770, -600, 382, -223
59823, 643, 725, 131, -4620, 2310, -35490, -595, 381, -222
59824, 645, 725, 130, -4480, 3010, -35210, -598, 376, -228
59825, 639, 730, 132, -4270, 3920, -35000, -600, 384, -244
59826, 640, 734, 132, -4270, 5180, -34720, -588, 382, -225
59827, 640, 740, 132, -3990, 7700, -34230, -594, 387, -225
59828, 635, 744, 132, -3920, 8960, -34020, -594, 379, -237
59829, 628, 750, 131, -3780, 9870, -33810, -594, 375, -232
59830, 617, 754, 131, -3640, 10570, -33600, -594, 381, -225
59831, 608, 756, 131, -3500, 11760, -33110, -589, 373, -225
59832, 593, 759, 133, -3500, 11970, -32970, -586, 397, -231
59833, 584, 762, 133, -3430, 12110, -32620, -588, 381, -234
59834, 575, 766, 135, -3430, 12180, -32340, -576, 382, -235
59835, 568, 769, 137, -3290, 12180, -32060, -577, 376, -220
59836, 555, 777, 139, -3080, 12040, -31290, -576, 378, -229
59837, 544, 784, 142, -3010, 11970, -30870, -565, 382, -238
59838, 536, 786, 143, -3010, 11830, -30450, -579, 379, -222
59839, 535, 786, 143, -2940, 11690, -30030, -577, 385, -229
59840, 539, 786, 146, -2870, 11760, -29680, -568, 384, -234
59841, 531, 790, 149, -2660, 11760, -28840, -567, 375, -228
59842, 525, 787, 151, -2660, 11620, -28350, -568, 376, -240
59843, 516, 788, 154, -2450, 11270, -28000, -561, 379, -235
59844, 512, 791, 155, -2380, 11060, -27650, -559, 388, -238
59845, 505, 793, 159, -2240, 9520, -27090, -558, 387, -232
59846, 514, 802, 162, -2170, 8890, -26810, -571, 376, -228
59847, 525, 817, 163, -2100, 9240, -26390, -549, 384, -241
59848, 533, 827, 164, -2030, 10640, -25690, -558, 385, -238
59849, 529, 829, 167, -1820, 13160, -24850, -556, 379, -234
59850, 488, 825, 171, -1190, 18830, -22960, -552, 387, -240
59851, 470, 815, 173, -840, 20580, -22190, -553, 379, -249
59852, 460, 809, 173, -490, 21490, -21490, -559, 387, -237
59853, 455, 809, 172, -70, 21490, -20930, -546, 378, -244
59854, 449, 815, 171, -70, 20370, -20510, -546, 391, -241
59855, 468, 832, 170, -70, 16100, -20160, -541, 379, -247
59856, 494, 840, 172, -280, 14420, -20160, -547, 387, -237
59857, 520, 849, 171, -560, 14000, -20160, -546, 388, -246
59858, 543, 853, 173, -700, 14560, -20090, -544, 384, -237
59859, 573, 849, 179, -350, 21420, -19670, -544, 373, -249
59860, 589, 830, 182, 140, 26740, -19390, -541, 379, -237
59861, 576, 817, 184, 980, 32200, -19180, -532, 381, -244
59862, 563, 808, 186, 1750, 37310, -18830, -546, 388, -252
59863, 546, 809, 185, 2520, 42070, -18550, -528, 384, -249
59864, 516, 823, 188, 3920, 50260, -17850, -541, 375, -238
59865, 498, 832, 189, 4550, 53410, -17570, -529, 384, -247
59866, 468, 844, 188, 4690, 55090, -17290, -531, 385, -247
59867, 440, 859, 184, 4830, 54670, -17150, -528, 370, -246
59868, 421, 870, 184, 4550, 52780, -17150, -525, 382, -237
59869, 407, 868, 191, 4060, 46970, -17290, -516, 381, -241
59870, 401, 863, 194, 3780, 43680, -17430, -516, 379, -238
59871, 399, 862, 194, 3570, 40040, -17640, -519, 382, -244
59872, 409, 862, 199, 3290, 36680, -17780, -511, 372, -240
59873, 432, 851, 208, 3290, 33390, -17920, -516, 376, -238
59874, 429, 852, 211, 3360, 32900, -17920, -514, 385, -238
59875, 409, 860, 211, 3500, 31570, -18060, -508, 385, -240
59876, 388, 867, 211, 3500, 28910, -18340, -505, 382, -235
59877, 375, 873, 211, 3150, 24710, -18830, -501, 384, -232
59878, 359, 881, 216, 2030, 14000, -19880, -507, 379, -238
59879, 364, 880, 218, 1400, 8120, -20510, -507, 379, -237
59880, 386, 876, 223, 840, 3290, -21070, -492, 376, -232
59881, 424, 867, 230, 560, 700, -21560, -510, 372, -244
59882, 460, 862, 236, 560, 490, -21910, -501, 381, -243
59883, 490, 859, 241, 980, 4410, -22400, -504, 379, -235
59884, 484, 863, 241, 1400, 6650, -22750, -501, 378, -247
59885, 463, 871, 239, 1540, 7980, -23100, -492, 378, -238
59886, 440, 880, 238, 1540, 8050, -23590, -498, 379, -241
59887, 406, 882, 235, 1190, 5600, -24640, -487, 367, -238
59888, 401, 881, 235, 980, 4200, -25130, -495, 376, -247
59889, 403, 880, 237, 770, 3010, -25620, -493, 369, -240
59890, 411, 877, 240, 700, 2380, -25970, -483, 372, -243
59891, 418, 875, 243, 770, 2450, -26320, -493, 378, -234
59892, 420, 883, 241, 1050, 5040, -26740, -487, 364, -241
59893, 409, 888, 240, 1190, 6300, -26880, -487, 384, -240
59894, 385, 890, 239, 1120, 6720, -27090, -480, 375, -244
59895, 362, 891, 238, 1120, 6370, -27160, -484, 369, -240
59896, 346, 891, 238, 980, 5320, -27370, -481, 366, -246
59897, 344, 887, 236, 770, 3850, -27650, -480, 375, -232
59898, 354, 886, 239, 840, 3920, -27720, -475, 370, -244
59899, 364, 891, 240, 840, 4830, -27580, -475, 369, -249
59900, 363, 897, 241, 1050, 6440, -27370, -475, 372, -231
59901, 330, 907, 239, 1330, 10150, -26600, -478, 369, -235
59902, 308, 911, 237, 1400, 11410, -26250, -468, 361, -253
59903, 285, 910, 235, 1470, 12110, -25760, -477, 375, -244
59904, 260, 910, 233, 1470, 11760, -25340, -466, 367, -246
59905, 243, 909, 231, 1330, 10640, -24990, -469, 369, -238
59906, 243, 916, 232, 1260, 7630, -24220, -465, 360, -240
59907, 253, 921, 230, 1120, 6720, -23800, -463, 363, -237
59908, 265, 923, 231, 1050, 6370, -23450, -454, 361, -238
59909, 274, 922, 231, 910, 6510, -22960, -474, 367, -244
59910, 276, 919, 232, 1050, 6930, -22610, -460, 367, -240
59911, 260, 918, 232, 1050, 7420, -21840, -460, 366, -247
59912, 243, 918, 233, 1120, 7140, -21420, -459, 363, -247
59913, 225, 919, 233, 1050, 6370, -21140, -460, 364, -241
59914, 219, 922, 233, 1050, 5250, -20720, -448, 367, -240
59915, 231, 927, 236, 840, 3710, -20230, -451, 357, -238
59916, 242, 928, 238, 840, 3290, -19880, -454, 358, -247
59917, 257, 927, 240, 770, 3360, -19600, -439, 366, -243
59918, 266, 926, 241, 770, 3920, -19320, -459, 363, -250
59919, 267, 928, 243, 840, 4620, -19180, -451, 369, -240
59920, 249, 929, 244, 910, 4620, -18970, -444, 360, -252
59921, 238, 930, 244, 840, 4060, -18900, -450, 363, -243
59922, 233, 931, 244, 770, 3500, -18830, -447, 364, -237
59923, 236, 931, 243, 770, 3220, -18830, -441, 358, -244
59924, 242, 929, 244, 770, 3080, -18830, -447, 355, -241
59925, 255, 932, 246, 700, 3430, -18760, -448, 360, -243
59926, 253, 934, 245, 770, 3990, -18760, -433, 357, -237
59927, 240, 934, 246, 770, 4340, -18620, -441, 358, -238
59928, 228, 934, 244, 770, 4200, -18550, -430, 358, -240
59929, 211, 937, 244, 770, 3360, -18550, -442, 351, -252
59930, 205, 939, 243, 700, 2800, -18480, -441, 345, -244
59931, 202, 938, 243, 630, 2170, -18410, -439, 360, -241
59932, 206, 936, 244, 630, 1470, -18410, -442, 357, -246
59933, 214, 937, 244, 490, 980, -18410, -441, 352, -246
59934, 236, 941, 245, 560, 1400, -18620, -438, 358, -246
59935, 245, 940, 245, 560, 2170, -18620, -435, 352, -244
59936, 245, 940, 244, 700, 3290, -18620, -433, 358, -249
59937, 240, 941, 241, 770, 4410, -18690, -432, 348, -255
59938, 230, 943, 239, 840, 5600, -18970, -427, 358, -235
59939, 212, 944, 237, 770, 5530, -19250, -421, 342, -241
59940, 204, 944, 235, 770, 4970, -19460, -427, 352, -243
59941, 197, 945, 234, 700, 4200, -19670, -426, 349, -240
59942, 191, 945, 234, 630, 3500, -19810, -429, 352, -241
59943, 178, 947, 234, 700, 3290, -19810, -420, 348, -255
59944, 168, 949, 232, 700, 3430, -19670, -429, 349, -247
59945, 150, 950, 234, 700, 3500, -19390, -420, 349, -246
59946, 137, 954, 234, 700, 3360, -19040, -426, 351, -250
59947, 127, 958, 234, 630, 3290, -18550, -420, 348, -252
59948, 105, 961, 233, 560, 3290, -17430, -414, 351, -241
59949, 94, 960, 232, 490, 3010, -16800, -418, 345, -247
59950, 88, 959, 231, 420, 2520, -16030, -421, 348, -249
59951, 82, 959, 230, 420, 2240, -15330, -415, 342, -249
59952, 67, 960, 232, 140, 350, -13790, -418, 345, -249
59953, 49, 965, 232, 140, -1190, -13020, -412, 343, -247
59954, 37, 967, 235, 0, -2940, -12180, -418, 346, -253
59955, 26, 967, 235, -210, -4830, -11200, -418, 343, -256
59956, 53, 961, 234, -420, -6090, -10430, -411, 337, -244
59957, 113, 963, 238, -560, -7350, -9380, -418, 340, -243
59958, 146, 962, 241, -490, -5950, -8750, -418, 348, -250
59959, 173, 957, 245, -280, -3010, -7910, -409, 336, -255
59960, 151, 957, 242, -70, 700, -7000, -409, 337, -252
59961, 126, 959, 240, 280, 3710, -6090, -418, 345, -247
59962, 63, 960, 240, 420, 3640, -5110, -411, 349, -253
59963, 53, 967, 235, 280, 1610, -4830, -408, 336, -247
59964, 93, 970, 236, 210, 70, -4410, -418, 342, -249
59965, 97, 967, 234, 0, 350, -3850, -406, 349, -261
59966, 108, 962, 237, 0, 1260, -2520, -412, 342, -253
59967, 87, 959, 238, 0, 1190, -1960, -412, 336, -256
59968, 72, 963, 236, 0, 770, -1400, -412, 348, -253
59969, 83, 964, 237, 70, 70, -980, -406, 342, -255
59970, 83, 965, 238, 70, -350, -490, -412, 343, -247
59971, 92, 965, 237, -70, -420, 630, -399, 346, -247
59972, 98, 964, 238, -70, -70, 1260, -400, 333, -249
59973, 90, 964, 237, -140, 140, 1820, -417, 342, -246
59974, 88, 963, 238, -70, 0, 2310, -412, 342, -247
59975, 81, 964, 237, -210, -350, 2870, -412, 342, -253
59976, 90, 962, 237, -70, -910, 3850, -402, 330, -253
59977, 97, 961, 238, -140, -910, 4410, -409, 339, -244
59978, 96, 962, 236, -140, -910, 4970, -417, 340, -246
59979, 96, 964, 237, -70, -770, 5460, -415, 342, -241
59980, 91, 964, 236, -280, -1050, 6580, -417, 349, -258
59981, 92, 962, 236, -210, -1330, 7070, -415, 351, -249
59982, 96, 961, 236, -280, -1470, 7700, -415, 345, -250
59983, 98, 962, 237, -210, -1540, 8260, -417, 343, -247
59984, 98, 960, 236, -210, -1610, 8750, -412, 336, -249
59985, 100, 962, 235, -280, -1820, 9870, -412, 349, -250
59986, 101, 962, 234, -350, -1890, 10500, -415, 345, -252
59987, 99, 962, 234, -350, -2030, 11060, -414, 343, -250
59988, 102, 960, 235, -350, -2170, 11690, -406, 340, -255
59989, 101, 960, 234, -350, -2310, 12180, -421, 337, -249
59990, 124, 952, 237, -420, -2520, 13370, -418, 343, -253
59991, 131, 943, 240, 0, -840, 14140, -418, 342, -250
59992, 809, 724, 449, 2730, 18900, 15680, -409, 342, -255
59993, 238, 900, 234, 7350, 51590, 20930, -420, 349, -241
59994, -105, 1172, 190, 3150, 38710, 20090, -423, 349, -244
59995, -161, 1091, 167, -560, 21700, 17850, -420, 346, -243
59996, -41, 922, 200, -2800, 4200, 17360, -411, 349, -237
59997, 161, 826, 242, -2730, -3290, 15540, -418, 345, -241
59998, 339, 816, 275, -840, -2380, 15260, -409, 348, -250
59999, 479, 918, 281, 3360, 11270, 14350, -424, 349, -241
60000, 467, 974, 263, 3710, 18480, 12880, -432, 349, -243
60001, 462, 1007, 244, 3080, 24150, 11550, -421, 345, -235
60002, 403, 1020, 220, 2170, 29890, 9380, -415, 364, -243
60003, 392, 974, 229, 1050, 31920, 7560, -427, 354, -223
60004, 301, 915, 241, 560, 26670, 2730, -424, 357, -244
60005, 215, 930, 221, 840, 19390, 210, -427, 355, -238
60006, 180, 926, 217, 910, 7840, -1960, -418, 342, -226
60007, 157, 924, 204, 560, -5390, -4550, -423, 363, -232
60008, 301, 939, 216, -490, -19180, -8610, -421, 357, -237
60009, 395, 946, 232, -560, -15820, -9800, -412, 343, -243
60010, 477, 950, 255, -70, -6370, -10640, -427, 345, -241
60011, 490, 949, 268, 840, 4830, -10850, -418, 346, -240
60012, 407, 950, 262, 1680, 14140, -11270, -423, 343, -231
60013, 247, 916, 254, 2870, 19740, -12950, -421, 354, -235
60014, 206, 913, 254, 3220, 19110, -14000, -414, 342, -229
60015, 151, 938, 245, 3150, 16240, -15120, -414, 349, -225
60016, 141, 963, 244, 2730, 11900, -16100, -406, 343, -229
60017, 117, 978, 241, 1960, 6300, -16800, -417, 348, -235
60018, 133, 955, 250, 840, -1470, -17640, -417, 346, -237
60019, 124, 950, 243, 700, -2450, -17850, -421, 348, -226
60020, 127, 946, 246, 700, -3080, -17850, -409, 352, -232
60021, 124, 951, 241, 770, -3920, -17780, -420, 349, -241
60022, 110, 961, 234, 350, -7560, -17710, -406, 343, -243
60023, 121, 955, 234, 210, -8610, -17430, -409, 342, -237
60024, 140, 942, 239, 350, -7630, -17010, -406, 343, -235
60025, 149, 938, 244, 700, -4480, -16380, -408, 346, -226
60026, 132, 953, 242, 1050, -1050, -15610, -405, 340, -238
60027, 86, 993, 237, 1260, 3010, -13930, -417, 342, -234
60028, 75, 977, 240, 1190, 4200, -13300, -396, 340, -234
