Time [mS], AccX [mg],AccY [mg],AccZ [mg],GyroX [mdps],GyroY [mdps],GyroZ [mdps],MagX [mgauss],MagY [mgauss],MagZ [mgauss]
12292, -100, 988, 182, 700, 210, 2800, -673, 349, -189
12293, -62, 972, 177, 350, -70, 2450, -672, 348, -190
12294, -86, 986, 186, 1330, 490, 4480, -673, 358, -190
12295, -56, 978, 184, 630, 910, 4760, -679, 349, -190
12296, -63, 981, 184, 910, 1330, 3710, -681, 354, -186
12297, -84, 990, 174, 840, 2170, 2240, -679, 354, -193
12298, -31, 969, 189, 2380, -1470, 3010, -681, 355, -192
12299, -88, 984, 195, 490, 1610, 3850, -670, 346, -199
12300, -102, 987, 181, 210, 1120, -910, -672, 342, -198
12301, -86, 975, 184, -210, 770, -1190, -673, 352, -196
12302, -86, 978, 180, -560, 210, -1120, -675, 351, -195
12303, -59, 982, 178, -420, 140, -1050, -670, 348, -195
12304, -62, 979, 177, -140, 490, -770, -679, 352, -181
12305, -80, 978, 178, 350, 910, -560, -673, 352, -196
12306, -88, 982, 179, 420, 980, -630, -679, 358, -181
12307, -80, 983, 180, 350, 910, -700, -678, 354, -193
12308, -84, 982, 179, 280, 910, -770, -672, 348, -189
12309, -74, 984, 178, -280, 910, -630, -672, 349, -198
12310, -70, 980, 180, -420, 1190, -630, -672, 346, -184
12311, -79, 980, 180, -490, 1470, -630, -678, 345, -189
12312, -69, 979, 179, -490, 1680, -560, -676, 345, -196
12313, -75, 981, 179, -630, 1960, -560, -670, 355, -193
12314, -74, 983, 176, -980, 1750, -770, -663, 345, -183
12315, -69, 983, 178, -980, 1540, -910, -676, 354, -192
12316, -73, 984, 176, -1050, 1190, -1190, -670, 354, -199
12317, -63, 983, 175, -1050, 1190, -1540, -675, 352, -196
12318, -61, 981, 172, -980, 1190, -1750, -669, 355, -189
12319, -64, 981, 168, -420, 280, -2590, -673, 348, -190
12320, -67, 976, 168, -70, -630, -2800, -679, 355, -189
12321, -69, 976, 171, 210, -1540, -2730, -676, 352, -192
12322, -70, 976, 174, 210, -1820, -3010, -675, 351, -196
12323, -63, 979, 176, 0, -2100, -3360, -675, 354, -195
12324, -53, 982, 177, -490, -1190, -3220, -670, 354, -193
12325, -52, 980, 184, -350, -980, -3290, -669, 351, -190
12326, -52, 979, 185, -280, -140, -3500, -669, 354, -198
12327, -63, 978, 184, -350, 280, -3570, -660, 354, -192
12328, -79, 976, 187, -280, 560, -3920, -670, 346, -186
12329, -79, 975, 191, -350, 700, -4060, -676, 349, -195
12330, -79, 976, 193, -560, 1050, -4130, -666, 360, -195
12331, -63, 971, 215, -910, 2590, -4060, -670, 343, -198
12332, -72, 970, 212, -2450, 6720, -3990, -676, 357, -192
12333, -106, 979, 194, -3500, 8400, -2450, -681, 354, -202
12334, -117, 975, 195, -2870, 6020, -2310, -676, 345, -198
12335, -126, 971, 195, -2030, 3780, -2520, -673, 354, -201
12336, -123, 973, 194, -1400, 2030, -2730, -672, 351, -189
12337, -114, 974, 191, -770, 1260, -2730, -661, 343, -199
12338, -107, 978, 187, -490, 1120, -2520, -669, 348, -195
12339, -108, 982, 184, -350, 1260, -2310, -670, 346, -192
12340, -114, 981, 183, -210, 1120, -2100, -667, 358, -187
12341, -119, 976, 180, -210, 1190, -1960, -670, 348, -205
12342, -114, 981, 174, -140, 630, -1680, -669, 352, -202
12343, -103, 982, 173, -140, 350, -1540, -681, 348, -205
12344, -97, 981, 172, -210, 280, -1400, -667, 349, -201
12345, -93, 982, 170, -210, 490, -1260, -669, 349, -201
12346, -94, 981, 169, -210, 770, -1260, -670, 352, -199
12347, -92, 979, 168, -140, 840, -1190, -667, 343, -210
12348, -88, 981, 168, -70, 840, -1260, -675, 346, -204
12349, -88, 982, 166, -140, 840, -1330, -667, 348, -195
12350, -88, 982, 167, -210, 910, -1330, -666, 360, -198
12351, -89, 982, 168, -210, 840, -1470, -670, 349, -195
12352, -89, 981, 168, -210, 910, -1540, -660, 361, -192
12353, -89, 980, 170, -280, 840, -1540, -676, 346, -193
12354, -90, 980, 171, -210, 770, -1680, -670, 348, -195
12355, -88, 979, 175, -210, 630, -1820, -678, 348, -205
12356, -86, 978, 179, -280, 700, -1960, -678, 352, -192
12357, -83, 978, 182, -210, 840, -1960, -661, 348, -202
12358, -87, 977, 185, -280, 1050, -2100, -663, 354, -193
12359, -86, 978, 186, -280, 1050, -2170, -669, 343, -192
12360, -89, 977, 188, -210, 1190, -2310, -670, 357, -198
12361, -90, 975, 189, -210, 1190, -2450, -669, 357, -196
12362, -88, 975, 190, -210, 1120, -2590, -669, 351, -198
12363, -90, 975, 191, -140, 1120, -2590, -661, 361, -195
12364, -89, 975, 191, -140, 1260, -2730, -663, 360, -192
12365, -96, 975, 192, -210, 1400, -2800, -667, 343, -204
12366, -100, 975, 191, -140, 1330, -2800, -669, 345, -192
12367, -101, 975, 192, -210, 1260, -2800, -669, 346, -189
12368, -104, 975, 191, -70, 1190, -2800, -682, 355, -195
12369, -106, 976, 190, -140, 1120, -2730, -663, 354, -202
12370, -112, 976, 188, 0, 1120, -2660, -661, 357, -201
12371, -114, 976, 187, -70, 980, -2520, -666, 357, -204
12372, -117, 977, 185, -70, 840, -2450, -670, 349, -196
12373, -116, 975, 185, -70, 630, -2310, -669, 352, -201
12374, -118, 976, 183, -70, 630, -2240, -675, 355, -204
12375, -119, 977, 183, 0, 490, -1890, -667, 349, -202
12376, -120, 976, 183, 0, 420, -1680, -666, 352, -192
12377, -121, 977, 183, 0, 420, -1610, -667, 358, -205
12378, -120, 978, 183, 70, 350, -1400, -670, 355, -195
12379, -120, 977, 183, 0, 210, -1120, -667, 355, -193
12380, -121, 977, 182, 0, 140, -910, -673, 354, -207
12381, -119, 977, 183, 70, 140, -700, -666, 346, -195
12382, -120, 977, 182, 70, 70, -560, -673, 357, -190
12383, -118, 976, 183, 70, 0, -490, -678, 348, -193
12384, -115, 977, 182, 70, 0, -140, -667, 357, -196
12385, -113, 977, 183, 70, -70, -140, -670, 352, -201
12386, -110, 977, 182, 70, -70, -70, -666, 354, -205
12387, -108, 978, 181, 0, -70, 0, -672, 355, -196
12388, -105, 978, 182, -70, 70, 70, -669, 351, -187
12389, -101, 975, 182, 0, 140, 0, -664, 361, -208
12390, -99, 976, 181, 70, 70, 0, -666, 343, -193
12391, -97, 976, 182, 70, 140, -70, -669, 355, -201
12392, -95, 978, 182, 70, 210, -140, -663, 349, -190
12393, -90, 979, 182, -70, 210, -420, -664, 355, -196
12394, -88, 978, 181, -70, 350, -560, -663, 358, -190
12395, -87, 976, 181, -140, 350, -700, -657, 352, -201
12396, -88, 975, 181, -70, 490, -910, -666, 354, -199
12397, -88, 976, 181, 0, 560, -1050, -663, 358, -199
12398, -92, 976, 181, 0, 700, -1400, -658, 355, -195
12399, -94, 977, 181, -70, 700, -1470, -670, 357, -211
12400, -96, 978, 182, -140, 770, -1540, -663, 352, -202
12401, -100, 978, 183, -140, 770, -1680, -658, 354, -196
12402, -101, 978, 181, -140, 840, -1750, -669, 346, -211
12403, -107, 975, 181, -140, 770, -1750, -660, 349, -195
12404, -122, 976, 180, -70, 840, -1750, -661, 354, -202
12405, -106, 976, 184, -140, 560, -1680, -666, 349, -201
12406, -124, 975, 181, -140, 560, -1540, -667, 340, -204
12407, -121, 977, 183, -70, 490, -1470, -666, 349, -190
12408, -109, 977, 186, -140, 560, -1400, -667, 358, -199
12409, -121, 977, 183, -70, 420, -1330, -664, 348, -205
12410, -112, 976, 185, -70, 420, -1260, -670, 357, -204
12411, -121, 976, 185, -70, 420, -1050, -667, 355, -202
12412, -120, 976, 184, 0, 560, -840, -664, 351, -201
12413, -121, 976, 185, -70, 770, -770, -670, 351, -202
12414, -122, 976, 185, 0, 700, -560, -673, 345, -207
12415, -127, 976, 183, 0, 910, -420, -669, 358, -192
12416, -123, 976, 185, 0, 700, -140, -664, 352, -202
12417, -122, 975, 184, 0, 490, 70, -666, 352, -198
12418, -124, 975, 181, 0, 420, 140, -670, 351, -207
12419, -111, 976, 183, 0, 210, 210, -672, 352, -205
12420, -110, 977, 181, 70, 490, 210, -655, 358, -205
12421, -105, 977, 182, 0, 1120, 280, -664, 354, -207
12422, -100, 976, 182, 70, 1400, 350, -670, 351, -207
12423, -106, 976, 181, 0, 1610, 280, -661, 355, -207
12424, -97, 979, 183, 0, 1610, 280, -663, 354, -199
12425, -103, 975, 180, 0, 2170, 280, -664, 352, -207
12426, -114, 975, 183, 70, 1400, 70, -663, 361, -204
12427, -116, 975, 182, 70, 840, -70, -664, 349, -195
12428, -110, 977, 185, 0, 350, -210, -660, 357, -202
12429, -103, 978, 187, 70, 70, -350, -672, 360, -201
12430, -92, 975, 188, 70, 350, -560, -661, 355, -196
12431, -87, 975, 190, 140, 560, -560, -663, 348, -202
12432, -96, 975, 190, 140, 770, -700, -664, 354, -198
12433, -94, 972, 191, 70, 770, -910, -663, 360, -190
12434, -103, 972, 190, 140, 770, -1050, -666, 363, -193
12435, -110, 977, 191, 140, 420, -1190, -667, 351, -205
12436, -102, 972, 193, 140, 0, -1400, -661, 352, -192
12437, -102, 971, 190, 140, -70, -1540, -664, 348, -202
12438, -94, 973, 192, 140, 280, -1680, -657, 352, -201
12439, -96, 975, 191, 140, 490, -1820, -666, 360, -196
12440, -95, 974, 193, 140, 700, -2030, -670, 355, -195
12441, -92, 974, 190, 0, 840, -2170, -664, 354, -207
12442, -95, 973, 188, 140, 980, -2380, -667, 355, -207
12443, -99, 973, 188, 0, 1190, -2520, -666, 357, -201
12444, -105, 976, 185, 70, 1540, -2520, -661, 352, -199
12445, -115, 976, 185, 70, 1680, -2520, -666, 352, -201
12446, -118, 974, 182, 70, 1960, -2450, -672, 358, -198
12447, -120, 977, 179, 140, 2240, -2380, -657, 354, -195
12448, -121, 977, 176, 0, 2730, -2240, -664, 361, -207
12449, -130, 976, 172, -70, 3850, -1610, -669, 355, -205
12450, -138, 979, 169, 0, 4340, -1330, -666, 363, -199
12451, -148, 982, 168, -70, 4550, -910, -658, 355, -204
12452, -152, 979, 163, -70, 5180, -420, -660, 354, -195
12453, -156, 982, 161, 70, 5670, 70, -663, 346, -201
12454, -156, 987, 154, 0, 6440, 980, -669, 351, -196
12455, -154, 982, 154, -140, 6230, 1470, -664, 345, -196
12456, -159, 979, 155, -70, 6090, 1960, -661, 351, -205
12457, -159, 978, 158, 0, 6230, 2520, -666, 360, -204
12458, -163, 982, 164, 70, 6510, 3500, -675, 366, -207
12459, -166, 982, 163, 70, 6090, 3850, -663, 346, -201
12460, -161, 980, 169, 0, 5250, 4200, -658, 351, -201
12461, -158, 980, 172, 70, 4340, 4550, -670, 357, -202
12462, -148, 979, 177, -70, 3570, 4830, -663, 351, -201
12463, -134, 975, 183, 70, 2870, 5250, -664, 348, -208
12464, -128, 975, 185, 70, 2660, 5320, -670, 369, -201
12465, -119, 975, 189, 70, 2240, 5460, -664, 352, -198
12466, -115, 976, 190, 140, 1820, 5390, -675, 361, -201
12467, -106, 975, 194, 70, 1470, 5320, -663, 352, -199
12468, -91, 972, 198, 140, 770, 4900, -670, 370, -201
12469, -84, 972, 199, 140, 490, 4550, -664, 355, -207
12470, -73, 970, 201, 140, 210, 4200, -667, 346, -196
12471, -64, 971, 202, 140, 70, 3850, -664, 348, -207
12472, -53, 971, 203, 0, 0, 2800, -667, 349, -211
12473, -50, 971, 202, 70, 140, 2240, -669, 354, -208
12474, -49, 972, 200, 140, 420, 1750, -670, 351, -202
12475, -66, 968, 154, 1960, -3360, 1050, -666, 355, -201
12476, -24, 980, 234, 210, 490, 630, -666, 358, -195
12477, -45, 980, 197, 350, 700, -420, -660, 349, -208
12478, -58, 977, 177, 140, 1330, -840, -669, 360, -201
12479, -61, 978, 179, 70, 1120, -1400, -672, 343, -207
12480, -70, 976, 162, 140, 1470, -1890, -669, 351, -202
12481, -61, 980, 178, 0, 1190, -2240, -672, 349, -199
12482, -85, 980, 161, -70, 1890, -2870, -652, 355, -204
12483, -84, 980, 166, -140, 1820, -3150, -666, 352, -204
12484, -87, 983, 169, 0, 980, -3500, -661, 351, -202
12485, -94, 980, 164, -70, 980, -3710, -673, 360, -211
12486, -95, 979, 168, -140, 630, -4130, -672, 346, -208
12487, -96, 980, 171, 490, -140, -4270, -658, 355, -199
12488, -106, 981, 171, 280, 70, -4270, -658, 354, -192
12489, -105, 978, 175, 280, 420, -4410, -664, 352, -202
12490, -105, 982, 178, 350, 140, -4410, -669, 358, -208
12491, -100, 979, 184, -210, 1400, -4340, -661, 358, -211
12492, -133, 967, 151, 70, 980, -4340, -666, 360, -201
12493, -121, 970, 183, -210, 1680, -4200, -667, 357, -202
12494, -119, 978, 191, 210, 560, -4200, -661, 348, -201
12495, -134, 977, 172, -490, 2030, -3990, -654, 352, -204
12496, -119, 979, 194, -210, 1190, -3780, -661, 343, -192
12497, -130, 976, 188, 350, -70, -3710, -661, 361, -198
12498, -130, 972, 181, -350, 1330, -3500, -661, 352, -193
12499, -134, 973, 184, -490, 1540, -3360, -658, 360, -202
12500, -143, 973, 173, -280, 1050, -3080, -655, 343, -211
12501, -129, 975, 192, -280, 980, -3010, -670, 349, -205
12502, -132, 974, 193, -420, 1190, -2730, -654, 345, -207
12503, -130, 971, 184, -560, 1400, -2660, -663, 358, -207
12504, -141, 979, 180, -630, 1890, -2380, -661, 355, -201
12505, -120, 972, 200, -490, 1750, -2100, -658, 349, -205
12506, -143, 973, 165, -280, 1750, -1960, -664, 354, -201
12507, -130, 974, 188, -420, 1960, -1750, -666, 364, -210
12508, -121, 971, 190, -350, 1540, -1680, -670, 348, -208
12509, -137, 977, 178, -560, 1610, -1330, -663, 351, -204
12510, -117, 975, 204, -840, 2590, -1190, -661, 357, -208
12511, -122, 971, 186, -1050, 2940, -770, -669, 354, -201
12512, -127, 967, 172, -1260, 2940, 350, -670, 355, -199
12513, -24, 937, 236, -4550, 7140, 6790, -661, 360, -204
12514, -135, 984, 194, -4410, 6650, 8680, -655, 348, -208
12515, -85, 963, 207, -6090, 10500, 10290, -669, 351, -207
12516, -146, 990, 192, -7280, 13160, 11620, -658, 357, -210
12517, -153, 974, 158, -6860, 13440, 9520, -667, 358, -204
12518, -46, 959, 228, -6090, 11480, 8820, -667, 351, -219
12519, -193, 987, 151, -4340, 8400, 8260, -666, 354, -207
12520, -114, 972, 199, -2590, 4340, 5670, -669, 349, -214
12521, -108, 972, 204, -3780, 7210, 7140, -672, 352, -211
12522, -124, 970, 177, -2730, 4830, 7210, -669, 351, -213
12523, -128, 973, 177, -2030, 1890, 7630, -667, 363, -213
12524, -102, 978, 213, 210, -4410, 4270, -669, 349, -213
12525, -167, 980, 134, -1470, 1400, 3920, -667, 340, -210
12526, -87, 972, 219, 1190, -7000, 2380, -666, 346, -214
12527, -113, 978, 192, 0, -2940, 3150, -664, 351, -216
12528, -125, 966, 155, 3360, -11900, 2450, -657, 351, -208
12529, -118, 976, 180, 4970, -15470, 3360, -667, 348, -210
12530, -116, 992, 207, 4550, -14490, 2030, -673, 364, -208
12531, -110, 986, 204, 2660, -10500, 350, -663, 355, -217
12532, -111, 982, 198, 1120, -6440, 210, -663, 348, -205
12533, -110, 976, 181, -210, -3010, 560, -658, 352, -207
12534, -83, 980, 223, 210, -3570, 490, -670, 349, -213
12535, -118, 974, 163, -770, 700, 980, -664, 346, -213
12536, -97, 980, 191, -70, -1750, 980, -660, 354, -208
12537, -106, 978, 196, -700, 1050, 1470, -669, 345, -205
12538, -104, 981, 202, -1400, 3360, 2170, -673, 343, -208
12539, -104, 976, 188, -1610, 3850, 2590, -673, 340, -214
12540, -115, 975, 181, -630, 1330, 2450, -663, 352, -207
12541, -90, 978, 202, -1680, 3220, 3080, -666, 355, -210
12542, -90, 977, 197, -2030, 4900, 3220, -669, 351, -204
12543, -108, 976, 179, -700, 1120, 2590, -666, 345, -216
12544, -104, 977, 177, -70, -490, 2240, -667, 346, -213
12545, -103, 978, 185, 350, -1470, 1890, -663, 354, -211
12546, -95, 977, 189, 420, -1680, 1750, -666, 354, -213
12547, -87, 979, 197, -700, 1750, 2100, -661, 352, -213
12548, -91, 977, 192, -1330, 3780, 2380, -660, 351, -216
12549, -100, 976, 177, -1190, 2800, 2240, -669, 343, -219
12550, -123, 974, 151, -70, -770, 1750, -672, 349, -211
12551, -91, 977, 194, 210, -2450, 1470, -670, 352, -217
12552, -110, 974, 162, 210, -2030, 1540, -673, 354, -204
12553, -94, 975, 180, 910, -4760, 1260, -667, 348, -204
12554, -88, 976, 192, 1050, -5110, 1190, -669, 351, -205
12555, -92, 977, 183, 1050, -5320, 1050, -673, 348, -204
12556, -88, 976, 190, 1050, -5390, 840, -675, 351, -207
12557, -91, 976, 187, 1120, -6090, 700, -672, 345, -213
12558, -85, 976, 193, 1330, -6580, 630, -678, 343, -207
12559, -83, 977, 196, 770, -4760, 770, -657, 348, -207
12560, -70, 980, 211, -210, -1680, 1120, -670, 354, -204
12561, -67, 978, 209, -210, -560, 1050, -678, 345, -208
12562, -83, 976, 188, 0, -350, 910, -678, 349, -204
12563, -71, 976, 203, -420, 1610, 1260, -670, 340, -213
12564, -81, 976, 192, -630, 2870, 1330, -673, 352, -207
12565, -91, 980, 203, -280, 2100, 1400, -670, 346, -207
12566, -81, 975, 197, -1260, 5390, 1540, -673, 354, -205
12567, -73, 977, 204, -910, 4550, 1680, -672, 349, -204
12568, -101, 975, 171, -1330, 5390, 1610, -663, 355, -211
12569, -81, 978, 196, -560, 2800, 1330, -679, 346, -214
12570, -72, 977, 209, -1400, 4830, 1540, -666, 357, -220
12571, -122, 974, 146, -1890, 5600, 1820, -667, 349, -205
12572, -71, 980, 209, -420, 840, 1120, -670, 345, -208
12573, -103, 974, 164, -490, 980, 770, -663, 345, -205
12574, -88, 977, 180, 630, -2310, 280, -666, 358, -198
12575, -84, 978, 186, 770, -3150, -140, -658, 348, -216
12576, -86, 979, 190, 700, -2660, -70, -666, 342, -205
12577, -86, 978, 186, 490, -2030, 0, -678, 351, -214
12578, -93, 978, 183, 560, -2100, -70, -673, 349, -210
12579, -91, 978, 185, 700, -2310, 70, -664, 346, -219
12580, -89, 979, 186, 560, -2240, 70, -669, 348, -202
12581, -91, 979, 186, 490, -2030, 140, -667, 351, -208
12582, -88, 978, 186, 560, -1960, 210, -670, 346, -208
12583, -85, 978, 191, 420, -1470, 350, -675, 352, -208
12584, -81, 978, 191, 350, -1050, 420, -672, 345, -201
12585, -84, 979, 191, 140, -140, 350, -678, 352, -205
12586, -86, 978, 188, 70, 350, 420, -676, 351, -208
12587, -87, 978, 188, 0, 490, 420, -660, 349, -213
12588, -86, 978, 188, -140, 840, 420, -678, 348, -220
12589, -84, 978, 188, -70, 840, 280, -676, 348, -207
12590, -83, 977, 189, -140, 1050, 280, -669, 346, -205
12591, -81, 977, 189, -140, 1190, 210, -673, 348, -190
12592, -78, 978, 194, -420, 2170, 280, -675, 346, -207
12593, -80, 978, 190, -980, 4270, 490, -673, 351, -207
12594, -79, 977, 190, -1190, 4760, 560, -666, 345, -205
12595, -81, 976, 187, -1120, 4480, 630, -672, 349, -202
12596, -79, 976, 186, -910, 3850, 560, -666, 349, -210
12597, -79, 976, 187, -770, 3290, 490, -666, 351, -211
12598, -79, 976, 188, -630, 2380, 140, -666, 346, -216
12599, -82, 977, 185, -280, 1330, -350, -675, 349, -213
12600, -78, 977, 189, 0, 490, -770, -670, 352, -202
12601, -79, 977, 189, 210, 70, -1190, -667, 352, -214
12602, -78, 976, 188, 280, -490, -1470, -664, 349, -214
12603, -77, 975, 191, 630, -1680, -1820, -673, 351, -217
12604, -77, 976, 190, 560, -1540, -1960, -663, 340, -198
12605, -77, 977, 191, 490, -1190, -2030, -670, 349, -220
12606, -82, 977, 187, 560, -1540, -2240, -666, 346, -201
12607, -80, 977, 192, 700, -2030, -2520, -669, 343, -213
12608, -81, 976, 192, 560, -1540, -2450, -667, 349, -204
12609, -84, 977, 192, 420, -1190, -2450, -672, 348, -205
12610, -86, 977, 191, 420, -770, -2450, -670, 343, -213
12611, -90, 977, 189, 350, -910, -2590, -669, 354, -214
12612, -91, 977, 190, 210, -980, -2730, -660, 345, -207
12613, -93, 977, 190, 280, -1050, -2800, -666, 357, -211
12614, -97, 976, 187, 280, -1260, -2870, -667, 360, -210
12615, -97, 977, 190, 420, -1610, -2870, -666, 346, -208
12616, -101, 976, 189, 420, -1610, -2800, -672, 351, -213
12617, -96, 977, 194, 140, 0, -2380, -673, 354, -204
12618, -98, 977, 191, 0, 630, -2170, -666, 349, -210
12619, -110, 977, 177, 210, 70, -2100, -670, 346, -213
12620, -95, 980, 203, 70, 350, -2100, -664, 348, -208
12621, -105, 977, 189, -350, 1540, -1750, -667, 358, -205
12622, -106, 976, 187, -490, 2030, -1610, -669, 354, -198
12623, -106, 976, 185, -490, 1890, -1540, -663, 357, -204
12624, -106, 976, 187, -350, 1610, -1470, -670, 352, -208
12625, -106, 977, 186, -280, 1400, -1330, -660, 351, -216
12626, -106, 978, 189, -210, 1120, -1260, -670, 342, -222
12627, -105, 977, 190, -280, 1260, -1190, -661, 345, -211
12628, -104, 976, 188, -280, 1190, -1120, -672, 352, -213
12629, -100, 977, 192, -420, 1470, -1050, -675, 348, -214
12630, -101, 977, 191, -490, 1820, -770, -670, 354, -207
12631, -102, 977, 189, -560, 1820, -770, -667, 351, -201
12632, -111, 975, 178, -70, 560, -980, -667, 354, -204
12633, -106, 976, 185, 490, -1400, -1190, -669, 345, -210
12634, -85, 977, 211, -70, 280, -910, -669, 349, -207
12635, -94, 976, 193, 0, 140, -840, -664, 343, -223
12636, -100, 976, 186, 210, 0, -910, -670, 357, -217
12637, -99, 975, 186, 420, -1050, -1120, -666, 360, -208
12638, -96, 976, 193, 420, -1190, -1120, -672, 355, -208
12639, -96, 977, 191, 140, -350, -1120, -670, 349, -217
12640, -95, 977, 192, -70, 140, -1050, -667, 346, -201
12641, -97, 977, 189, -280, 910, -910, -678, 348, -213
12642, -98, 976, 188, -280, 1120, -910, -660, 339, -204
12643, -99, 976, 188, -210, 1050, -910, -664, 351, -210
12644, -99, 976, 188, -210, 1190, -910, -652, 354, -204
12645, -99, 976, 189, -210, 1260, -840, -667, 352, -208
12646, -99, 977, 189, -210, 1330, -770, -670, 355, -210
12647, -98, 977, 189, -280, 1680, -700, -666, 349, -208
12648, -101, 976, 187, -280, 1680, -770, -664, 348, -205
12649, -104, 975, 185, 210, 350, -840, -669, 345, -213
12650, -105, 976, 186, 350, -420, -980, -666, 363, -210
12651, -104, 976, 187, 420, -770, -1050, -672, 349, -213
12652, -105, 977, 188, 420, -980, -1050, -672, 343, -211
12653, -105, 977, 188, 490, -1260, -1120, -669, 355, -213
12654, -105, 976, 188, 420, -1330, -1190, -663, 355, -208
12655, -105, 976, 189, 350, -1050, -1050, -672, 351, -208
12656, -105, 976, 188, 280, -1050, -1050, -673, 345, -208
12657, -106, 975, 190, 280, -1120, -980, -661, 349, -214
12658, -105, 976, 191, 140, -560, -770, -654, 346, -201
12659, -105, 975, 191, 70, -560, -770, -667, 349, -211
12660, -105, 975, 190, 210, -910, -770, -661, 340, -208
12661, -106, 975, 188, 420, -1400, -770, -667, 351, -213
12662, -106, 975, 186, 700, -2170, -770, -669, 354, -207
12663, -103, 976, 189, 770, -2730, -700, -660, 352, -216
12664, -102, 977, 189, 840, -2730, -700, -672, 351, -210
12665, -102, 978, 192, 490, -2170, -700, -664, 352, -214
12666, -102, 978, 191, 70, -1680, -840, -663, 349, -207
12667, -96, 977, 198, -910, 910, -490, -666, 349, -207
12668, -121, 977, 174, -490, -2800, -1190, -661, 352, -210
12669, -107, 978, 193, 140, -4480, -1820, -657, 345, -213
12670, -103, 979, 195, 210, -4200, -2170, -669, 346, -204
12671, -100, 983, 198, -490, -1960, -2450, -658, 345, -208
12672, -90, 966, 203, -1050, 3570, -490, -667, 346, -193
12673, -110, 976, 174, -420, 1750, -630, -672, 351, -214
12674, -96, 978, 179, -140, 1190, -560, -663, 346, -216
12675, -100, 974, 183, 0, 1610, -420, -669, 342, -210
12676, -100, 976, 183, -70, 1890, -350, -666, 352, -207
12677, -108, 980, 179, -70, 1960, -280, -672, 346, -198
12678, -107, 978, 181, -70, 2100, -280, -667, 342, -222
12679, -99, 980, 181, -70, 2310, -280, -673, 346, -208
12680, -92, 981, 180, -70, 2660, -210, -667, 348, -208
12681, -86, 977, 182, -70, 3430, -280, -670, 357, -204
12682, -86, 979, 186, -70, 4690, -140, -664, 355, -213
12683, -86, 971, 185, 70, 5390, -140, -663, 351, -213
12684, -89, 971, 185, 140, 6440, -70, -666, 360, -204
12685, -86, 979, 185, 210, 7490, 0, -660, 358, -219
12686, -85, 983, 184, 140, 9520, 70, -663, 351, -205
12687, -84, 981, 183, 210, 10570, 140, -660, 352, -217
12688, -75, 976, 182, 210, 11970, 210, -670, 342, -202
12689, -71, 972, 181, 350, 13720, 280, -673, 346, -223
12690, -65, 972, 180, 560, 15750, 350, -667, 348, -211
12691, -66, 977, 179, 840, 19880, 630, -663, 343, -207
12692, -68, 974, 180, 980, 21980, 700, -663, 349, -217
12693, -72, 973, 180, 1190, 24150, 840, -663, 355, -217
12694, -80, 971, 180, 1400, 25970, 910, -667, 351, -207
12695, -91, 968, 182, 1470, 27160, 910, -661, 346, -213
12696, -89, 981, 185, 1680, 26180, 210, -667, 360, -226
12697, -101, 1022, 174, 1330, 24780, -420, -661, 360, -219
12698, -95, 1011, 173, 770, 22890, -910, -658, 349, -216
12699, -98, 963, 176, 560, 22050, -1120, -661, 346, -219
12700, -97, 930, 179, 1330, 23800, -1260, -661, 348, -223
12701, -107, 964, 177, 1680, 24010, -1400, -663, 352, -220
12702, -137, 1003, 169, 1540, 22540, -1750, -660, 351, -214
12703, -153, 1025, 162, 980, 19250, -2240, -658, 352, -228
12704, -143, 1029, 154, 140, 15120, -3080, -661, 349, -223
12705, -186, 968, 146, -420, 7070, -4200, -655, 355, -228
12706, -156, 945, 157, -210, 2240, -4480, -661, 346, -219
12707, -174, 952, 148, 70, 1120, -4970, -658, 358, -220
12708, -135, 963, 162, 560, -2310, -5040, -660, 358, -222
12709, -166, 979, 165, 560, -2590, -5460, -655, 354, -219
12710, -176, 978, 194, 280, -5460, -5530, -658, 354, -219
12711, -149, 967, 214, 140, -7560, -5180, -654, 352, -220
12712, -208, 982, 203, -140, -7420, -4970, -658, 349, -217
12713, -205, 993, 206, -350, -9100, -4340, -660, 349, -219
12714, -172, 950, 225, -560, -10920, -3290, -654, 349, -225
12715, -139, 950, 233, -490, -9520, -3080, -663, 346, -220
12716, -138, 955, 228, -210, -10290, -2660, -652, 348, -226
12717, -135, 958, 235, -140, -8470, -2590, -657, 352, -217
12718, -184, 980, 227, 0, -8750, -1960, -655, 355, -220
12719, -334, 1075, 162, -980, -5460, 2030, -664, 354, -210
12720, -380, 1028, 127, -2030, -2170, 4830, -652, 348, -217
12721, -291, 932, 143, -2170, -4760, 7560, -654, 351, -228
12722, -303, 861, 157, -1680, -4900, 9030, -655, 357, -217
12723, -221, 847, 194, 70, -7700, 10290, -655, 343, -229
12724, -165, 992, 224, 2030, -8820, 11200, -658, 352, -220
12725, -191, 1037, 223, 1330, -10080, 11200, -654, 358, -213
12726, -118, 1026, 243, 70, -14910, 11340, -657, 358, -217
12727, -157, 994, 240, -1330, -17360, 10990, -660, 348, -210
12728, -133, 924, 259, -1750, -20440, 10080, -669, 354, -210
12729, -71, 926, 278, -770, -21000, 9660, -673, 351, -213
12730, -96, 942, 270, 70, -19530, 9380, -666, 348, -202
12731, -33, 958, 270, 700, -18060, 9590, -667, 351, -213
12732, -58, 971, 251, 700, -15260, 9940, -669, 352, -214
12733, -54, 977, 239, -140, -9450, 10780, -667, 346, -216
12734, -36, 974, 244, -420, -6720, 10990, -676, 355, -207
12735, -83, 974, 234, -350, -4200, 11060, -667, 346, -213
12736, -62, 967, 235, 70, -2660, 11130, -660, 352, -208
12737, -94, 960, 216, 630, -1470, 11200, -675, 343, -220
12738, -114, 966, 190, 1120, -1610, 11270, -675, 346, -208
12739, -100, 980, 185, 1120, -2170, 11340, -669, 343, -213
12740, -112, 988, 174, 770, -2940, 11270, -672, 352, -214
12741, -73, 996, 176, 420, -3710, 11130, -675, 346, -213
12742, -34, 988, 171, -70, -4340, 10500, -666, 351, -217
12743, -39, 973, 167, 70, -3990, 10150, -675, 349, -214
12744, -20, 961, 172, 350, -2870, 9870, -664, 349, -217
12745, -41, 970, 165, 490, -1400, 10010, -675, 343, -208
12746, -42, 978, 167, 630, 420, 10080, -672, 346, -214
12747, -74, 984, 165, 700, 2380, 10500, -673, 343, -214
12748, -95, 983, 166, 630, 2660, 10850, -682, 337, -211
12749, -92, 978, 171, 630, 2940, 11060, -670, 346, -213
12750, -104, 970, 166, 630, 2240, 11270, -685, 348, -210
12751, -96, 976, 167, 420, -420, 11270, -681, 342, -208
12752, -86, 989, 165, 350, -1400, 11340, -681, 352, -204
12753, -82, 992, 163, 210, -2450, 11410, -672, 336, -214
12754, -70, 993, 163, 70, -2940, 11480, -676, 343, -217
12755, -68, 988, 162, 140, -3010, 11620, -682, 346, -214
12756, -70, 974, 165, 280, -2030, 12250, -678, 345, -211
12757, -73, 979, 163, 280, -1750, 12530, -675, 336, -219
12758, -71, 984, 163, 350, -1610, 12810, -681, 343, -213
12759, -71, 1002, 161, 420, -1330, 13160, -676, 337, -216
12760, -82, 1052, 164, 70, -840, 13510, -691, 342, -211
12761, -194, 1076, 128, -1400, -4270, 15750, -679, 340, -220
12762, -248, 1036, 112, -2240, -6230, 17220, -687, 349, -220
12763, -232, 940, 110, -2590, -8330, 18830, -676, 330, -222
12764, -180, 842, 119, -2170, -9450, 19600, -684, 342, -208
12765, -87, 806, 135, 910, -8750, 19810, -685, 333, -211
12766, 41, 941, 165, 2240, -7910, 19880, -690, 328, -210
12767, 49, 1026, 181, 3010, -6580, 20230, -691, 331, -210
12768, 46, 1083, 189, 2660, -5250, 20650, -696, 340, -210
12769, 28, 1098, 191, 1540, -3500, 20790, -688, 331, -210
12770, 22, 1002, 192, -980, -1120, 20090, -696, 345, -207
12771, 40, 943, 198, -1330, -1470, 19320, -688, 340, -208
12772, 58, 912, 207, -980, -2520, 18340, -694, 334, -214
12773, 82, 914, 215, -140, -3990, 17430, -688, 333, -211
12774, 100, 937, 219, 840, -4620, 16450, -682, 324, -220
12775, 130, 983, 219, 1470, -3990, 13930, -691, 336, -207
12776, 147, 996, 215, 980, -3780, 12530, -690, 334, -208
12777, 152, 1003, 212, 210, -3780, 11130, -702, 334, -213
12778, 158, 999, 210, -490, -3570, 9940, -691, 331, -205
12779, 148, 987, 208, -980, -1540, 7560, -696, 336, -210
12780, 121, 962, 197, -630, -420, 6440, -691, 322, -205
12781, 117, 957, 189, -140, 210, 5250, -696, 330, -210
12782, 121, 963, 181, 280, 140, 4060, -697, 330, -202
12783, 131, 973, 176, 560, -210, 2800, -691, 330, -225
12784, 136, 988, 169, 420, -490, 490, -703, 331, -205
12785, 137, 985, 168, 210, 0, -630, -696, 321, -202
12786, 141, 976, 171, 70, 630, -1890, -699, 331, -211
12787, 144, 969, 172, 70, 1120, -3290, -699, 333, -205
12788, 146, 965, 172, 210, 1330, -4620, -693, 333, -213
12789, 139, 977, 170, 560, 1820, -7140, -700, 336, -208
12790, 128, 986, 165, 490, 2240, -8260, -696, 336, -207
12791, 114, 996, 159, 490, 2660, -9310, -693, 331, -214
12792, 94, 1002, 154, 210, 3010, -10220, -694, 325, -207
12793, 75, 999, 145, -280, 3360, -11550, -694, 342, -222
12794, 32, 988, 141, -420, 3500, -11830, -687, 336, -210
12795, 8, 981, 137, -280, 3710, -11900, -685, 336, -208
12796, -13, 978, 133, -210, 4130, -11760, -691, 336, -211
12797, -32, 980, 129, 0, 4550, -11410, -690, 336, -214
12798, -52, 985, 128, 280, 4130, -10780, -691, 334, -210
12799, -54, 991, 132, 210, 3150, -10640, -690, 340, -219
12800, -51, 998, 136, 140, 1820, -10360, -688, 333, -208
12801, -44, 1001, 143, 0, 980, -10080, -688, 337, -216
12802, -37, 998, 153, -210, 770, -9730, -691, 333, -208
12803, -36, 983, 167, -350, 1750, -8890, -696, 339, -220
12804, -45, 977, 173, -280, 2450, -8400, -693, 339, -219
12805, -57, 975, 178, -70, 2800, -7700, -697, 340, -213
12806, -72, 978, 180, 0, 2940, -7210, -690, 321, -208
12807, -91, 991, 185, 0, 2380, -5950, -684, 334, -216
12808, -91, 995, 187, -140, 1820, -5320, -684, 336, -213
12809, -92, 996, 188, -350, 1400, -4620, -690, 343, -214
12810, -95, 991, 190, -350, 1120, -3850, -690, 337, -219
12811, -103, 983, 189, -490, 910, -2940, -690, 336, -213
12812, -112, 969, 195, -210, 210, -1190, -688, 328, -217
12813, -106, 969, 199, 0, -210, -420, -684, 345, -214
12814, -98, 977, 201, 140, -490, 350, -682, 330, -208
12815, -85, 980, 205, 140, -700, 1120, -685, 340, -205
12816, -74, 983, 209, 70, -980, 1680, -693, 343, -211
12817, -53, 987, 213, -70, -1120, 2730, -690, 336, -213
12818, -48, 987, 212, -140, -630, 3220, -693, 331, -208
12819, -53, 980, 209, -280, -70, 3710, -693, 336, -205
12820, -56, 974, 204, -210, 70, 4200, -691, 331, -213
12821, -64, 981, 192, -140, 70, 5180, -684, 342, -208
12822, -70, 980, 185, -70, -70, 5670, -693, 333, -205
12823, -66, 984, 182, -140, -350, 6160, -687, 342, -211
12824, -64, 986, 179, 0, -700, 6650, -700, 333, -207
12825, -55, 982, 176, -140, -980, 7000, -696, 334, -211
12826, -38, 983, 173, 0, -1680, 7700, -684, 336, -214
12827, -30, 983, 176, -70, -1820, 7980, -694, 328, -214
12828, -24, 982, 177, 0, -1680, 8260, -690, 337, -219
12829, -21, 984, 177, 0, -1680, 8470, -685, 337, -205
12830, -18, 988, 175, -140, -1750, 8610, -687, 334, -207
12831, -11, 986, 175, -350, -1820, 8820, -687, 333, -207
12832, -10, 984, 173, -420, -1750, 8960, -696, 337, -211
12833, -11, 984, 172, -420, -1750, 9100, -703, 333, -211
12834, -12, 982, 171, -350, -1890, 9240, -694, 330, -214
12835, 1, 976, 174, -350, -2520, 9170, -691, 340, -213
12836, 15, 978, 177, -280, -2940, 8960, -694, 333, -210
12837, 29, 980, 181, -140, -3080, 8750, -697, 325, -217
12838, 42, 983, 184, -140, -2730, 8610, -699, 330, -207
12839, 47, 984, 183, -140, -2310, 8400, -688, 324, -223
12840, 47, 985, 180, -420, -1330, 7840, -694, 343, -202
12841, 45, 982, 181, -490, -1120, 7560, -687, 331, -211
12842, 44, 975, 182, -420, -1260, 7140, -696, 325, -208
12843, 45, 973, 183, -350, -1470, 6790, -699, 324, -210
12844, 49, 972, 185, -140, -1470, 6020, -694, 333, -207
12845, 55, 977, 187, 0, -1330, 5670, -691, 334, -210
12846, 56, 983, 187, 0, -1050, 5390, -699, 336, -208
12847, 54, 987, 189, -140, -910, 5040, -699, 328, -213
12848, 52, 986, 189, -280, -840, 4690, -705, 328, -213
12849, 51, 975, 192, -210, -770, 3990, -703, 325, -210
12850, 53, 972, 193, -140, -770, 3640, -696, 337, -198
12851, 53, 972, 193, 0, -770, 3360, -697, 330, -207
12852, 55, 975, 194, 70, -490, 3010, -694, 328, -210
12853, 55, 980, 193, 70, -490, 2660, -702, 325, -210
12854, 54, 984, 194, -140, -350, 2100, -699, 333, -202
12855, 53, 980, 194, -140, -210, 1750, -702, 322, -208
12856, 53, 976, 194, -140, -210, 1470, -699, 321, -217
12857, 54, 974, 194, -70, -210, 1190, -712, 325, -204
12858, 54, 974, 194, -70, -70, 560, -694, 330, -210
12859, 54, 979, 193, 70, 0, 280, -699, 325, -216
12860, 54, 982, 192, 0, 210, 0, -696, 333, -207
12861, 54, 982, 191, 0, 210, -350, -699, 328, -213
12862, 54, 981, 191, -70, 210, -630, -699, 334, -201
12863, 53, 977, 188, 0, 420, -1260, -697, 325, -214
12864, 52, 977, 187, 70, 420, -1540, -711, 333, -208
12865, 52, 978, 186, 70, 420, -1820, -700, 328, -211
12866, 53, 981, 184, 140, 490, -2100, -694, 318, -214
12867, 52, 982, 184, 0, 560, -2380, -696, 327, -211
12868, 51, 982, 182, 0, 700, -2940, -700, 331, -207
12869, 51, 981, 182, 0, 700, -3290, -694, 339, -208
12870, 51, 980, 182, 0, 770, -3500, -697, 333, -207
12871, 51, 978, 181, 140, 840, -3920, -697, 319, -205
12872, 48, 979, 182, 140, 980, -4480, -705, 333, -205
12873, 49, 982, 182, 70, 1050, -4760, -705, 331, -213
12874, 48, 982, 183, 0, 1050, -5040, -702, 333, -199
12875, 48, 981, 183, 70, 1120, -5390, -705, 324, -217
12876, 48, 980, 184, 0, 1190, -5670, -696, 339, -207
12877, 61, 984, 187, 0, 2030, -6160, -691, 331, -205
12878, 35, 980, 183, 0, 2520, -6230, -696, 334, -207
12879, 24, 978, 183, 0, 2590, -6580, -702, 325, -210
12880, 27, 977, 184, 70, 1750, -6720, -699, 331, -204
12881, 21, 979, 183, 0, 1960, -7070, -700, 327, -208
12882, 25, 981, 184, 70, 2170, -7420, -702, 328, -207
12883, 39, 979, 186, 140, 2170, -7490, -700, 331, -207
12884, 29, 979, 183, 140, 3010, -7630, -694, 337, -220
12885, 43, 976, 184, 70, 3710, -7700, -691, 327, -219
12886, 35, 974, 183, 280, 7910, -7280, -694, 333, -210
12887, 34, 969, 181, 490, 11480, -6930, -700, 340, -210
12888, -25, 968, 179, 630, 13090, -6790, -702, 327, -207
12889, -118, 971, 181, 840, 7210, -7560, -691, 334, -213
12890, -121, 990, 185, 770, -2730, -8820, -696, 342, -208
12891, -48, 1004, 191, -420, -21280, -12180, -691, 331, -210
12892, -54, 986, 191, -1330, -30450, -14350, -690, 333, -205
12893, 0, 979, 197, -2100, -40810, -16660, -690, 337, -220
12894, 17, 980, 197, -3080, -49280, -18900, -687, 336, -201
12895, 7, 981, 192, -3850, -57050, -21000, -687, 345, -202
12896, 5, 928, 210, -4480, -69510, -24360, -688, 330, -198
12897, -49, 928, 208, -4410, -71820, -25690, -696, 339, -198
12898, -64, 956, 213, -4410, -75810, -26460, -697, 334, -184
12899, -131, 991, 214, -4900, -81410, -27300, -687, 339, -193
12900, -148, 1024, 208, -7000, -101080, -29470, -700, 339, -187
12901, -209, 1023, 208, -8610, -115220, -31220, -693, 334, -180
12902, -225, 1007, 206, -10150, -127400, -32970, -700, 342, -186
12903, -209, 976, 201, -11620, -140000, -34510, -679, 345, -172
12904, -212, 959, 191, -13090, -151970, -36190, -703, 336, -160
12905, -110, 974, 204, -15400, -170520, -39130, -688, 349, -165
12906, -8, 969, 215, -16240, -173950, -40320, -688, 349, -153
12907, 19, 962, 217, -17080, -174580, -41510, -693, 349, -144
12908, 108, 969, 220, -17990, -175000, -42630, -700, 345, -144
12909, 48, 984, 217, -19250, -173320, -43260, -697, 348, -133
12910, 46, 979, 233, -21630, -177030, -44310, -691, 345, -136
12911, 13, 960, 255, -22750, -176400, -44310, -693, 352, -127
12912, 45, 966, 282, -23380, -172410, -43540, -694, 343, -118
12913, 61, 982, 307, -23590, -163240, -41860, -696, 351, -109
12914, 78, 940, 337, -22050, -141330, -37520, -691, 351, -111
12915, 94, 903, 355, -20650, -129920, -35070, -694, 358, -99
12916, 66, 876, 377, -18620, -116550, -32760, -693, 349, -97
12917, 89, 881, 409, -16240, -102410, -30170, -691, 366, -103
12918, 22, 894, 422, -14000, -87220, -27440, -691, 346, -88
12919, -17, 938, 424, -10220, -61740, -21770, -694, 352, -88
12920, -40, 941, 422, -8680, -50610, -19250, -693, 346, -90
12921, -74, 938, 416, -7490, -42350, -17150, -688, 363, -85
12922, -125, 950, 402, -6510, -37730, -15330, -682, 361, -84
12923, -142, 960, 395, -5740, -35840, -14000, -684, 358, -82
12924, -207, 947, 386, -4620, -38080, -11970, -691, 358, -81
12925, -210, 933, 381, -4130, -41790, -11340, -687, 358, -82
12926, -192, 921, 374, -3710, -45570, -11060, -679, 358, -81
12927, -182, 911, 370, -3430, -48860, -10780, -685, 360, -76
12928, -158, 934, 372, -2870, -55090, -10570, -684, 361, -75
12929, -110, 943, 382, -3080, -57120, -10710, -676, 348, -66
12930, -61, 937, 396, -3150, -56910, -10780, -688, 354, -75
12931, -46, 928, 415, -3290, -54810, -10780, -684, 361, -73
12932, -41, 929, 413, -3220, -52500, -10430, -687, 357, -67
12933, -12, 911, 423, -2800, -45570, -9450, -679, 357, -69
12934, -9, 885, 430, -2240, -41650, -9030, -678, 360, -67
12935, -1, 868, 430, -1540, -38010, -8680, -676, 357, -60
12936, 0, 861, 427, -910, -35070, -8610, -679, 364, -60
12937, 13, 876, 424, -280, -31990, -8610, -681, 358, -70
12938, 9, 915, 426, 350, -26320, -8540, -682, 363, -55
12939, 8, 922, 423, 490, -23870, -8470, -678, 357, -64
12940, 4, 930, 421, 560, -20930, -8330, -675, 364, -55
12941, 7, 951, 423, 770, -18270, -7910, -682, 361, -57
12942, -48, 1002, 426, 840, -12950, -6930, -682, 357, -63
12943, -83, 985, 433, 840, -12110, -6440, -673, 358, -67
12944, -112, 931, 436, 840, -11970, -6160, -673, 364, -54
12945, -123, 889, 430, 700, -12740, -6160, -678, 352, -66
12946, -124, 878, 433, 700, -13580, -6300, -678, 363, -54
12947, -91, 885, 421, 350, -15260, -6510, -675, 349, -52
12948, -75, 910, 419, 140, -16450, -6580, -679, 364, -54
12949, -57, 943, 426, -420, -17570, -6440, -669, 358, -54
12950, -61, 958, 424, -1050, -18200, -6300, -673, 358, -55
12951, -52, 949, 434, -1540, -18480, -6020, -667, 354, -58
12952, -61, 912, 450, -2590, -15750, -5880, -676, 352, -49
12953, -62, 899, 453, -3010, -13720, -5810, -678, 366, -61
12954, -53, 899, 451, -3360, -11830, -5740, -681, 369, -55
12955, -42, 895, 442, -3780, -9940, -5670, -681, 360, -60
12956, -18, 945, 417, -4340, -7210, -5110, -676, 364, -57
12957, -32, 1006, 421, -4760, -6580, -4690, -681, 360, -51
12958, -67, 1039, 424, -5600, -6230, -4340, -664, 358, -52
12959, -91, 1018, 431, -6720, -7070, -4200, -667, 360, -51
12960, -124, 954, 427, -8050, -8890, -4270, -667, 357, -51
12961, -128, 872, 430, -10220, -11760, -4970, -679, 360, -60
12962, -81, 801, 454, -10640, -12320, -5460, -673, 360, -60
12963, 46, 704, 495, -9730, -12600, -6580, -682, 361, -61
12964, 134, 763, 481, -6860, -11060, -8400, -681, 367, -61
12965, 196, 912, 465, 4200, 7630, -10080, -672, 370, -61
12966, 243, 738, 359, 10010, 21210, -9170, -675, 370, -55
12967, 216, 504, 343, 14630, 30310, -8190, -667, 358, -52
12968, 97, 496, 353, 17220, 34090, -7700, -672, 369, -57
12969, -35, 840, 371, 18130, 35070, -7070, -673, 361, -64
12970, -275, 1452, 390, 15260, 38360, -3710, -679, 360, -58
12971, -305, 1251, 381, 12250, 35840, -2100, -670, 369, -58
12972, -317, 1127, 367, 8680, 27790, -910, -664, 364, -58
12973, -276, 1158, 363, 5040, 17990, 420, -667, 358, -57
12974, -221, 1161, 322, 2660, 13020, 2380, -672, 360, -55
12975, -136, 849, 265, 3010, 18340, 7630, -667, 360, -61
12976, -165, 755, 283, 3990, 20230, 9380, -670, 375, -55
12977, -231, 773, 325, 4340, 17780, 10080, -676, 364, -66
12978, -218, 920, 340, 4340, 12180, 10080, -669, 357, -67
12979, -219, 1051, 329, 4690, 3080, 9310, -673, 361, -60
12980, -72, 941, 295, 5880, -1540, 8540, -682, 367, -55
12981, -13, 914, 303, 7420, -7210, 7140, -672, 358, -55
12982, 29, 1012, 292, 9660, -12180, 5600, -682, 360, -58
12983, 18, 1042, 256, 11690, -12950, 4900, -670, 360, -63
12984, -82, 676, 252, 13300, -13230, 4690, -672, 355, -52
12985, -180, 664, 242, 12250, -19950, 3990, -672, 358, -48
12986, -245, 894, 255, 9800, -27790, 3220, -672, 360, -52
12987, -280, 1231, 254, 6790, -35560, 2800, -669, 369, -57
12988, -313, 1376, 242, 3010, -42350, 2730, -673, 367, -55
12989, -318, 1085, 280, -5880, -66500, 1190, -673, 364, -48
12990, -291, 1055, 299, -10080, -80780, -210, -667, 360, -49
12991, -273, 1090, 322, -12950, -90160, -1050, -676, 360, -40
12992, -221, 967, 321, -14140, -93240, -1330, -672, 360, -46
12993, -140, 717, 308, -12110, -94220, -1400, -675, 363, -34
12994, -135, 579, 397, -10570, -94570, -2310, -676, 367, -34
12995, -139, 579, 475, -8820, -93590, -3850, -672, 363, -42
12996, -106, 538, 585, -6020, -87080, -5880, -681, 375, -34
12997, 60, 558, 619, -350, -76090, -8330, -676, 360, -28
12998, 400, 936, 367, 15750, -33320, -9170, -678, 367, -28
12999, 355, 1087, 280, 21350, -10920, -6020, -663, 373, -30
13000, 177, 1064, 289, 22960, -3570, -2730, -675, 369, -21
13001, -101, 1001, 322, 19670, -11060, -840, -675, 376, -18
13002, -345, 1006, 373, 13930, -27860, -490, -673, 366, -21
13003, -468, 1307, 377, 5250, -43190, -1470, -670, 366, -28
13004, -336, 1301, 309, 3850, -39970, -420, -672, 369, -18
13005, -161, 1171, 232, 2380, -38290, 1190, -672, 372, -19
13006, -180, 1160, 214, -630, -45640, 2170, -679, 372, -22
13007, -169, 1370, 197, -10150, -78190, 1750, -672, 367, -10
13008, -202, 1886, 153, -13580, -93590, 1190, -676, 364, -9
13009, -232, 1754, 139, -16100, -101710, 490, -667, 378, -7
13010, -240, 1223, 228, -18060, -109760, -980, -675, 366, -4
13011, -155, 712, 239, -19320, -121240, -3850, -666, 378, 0
13012, -18, 425, 313, -17780, -124180, -10570, -675, 370, 3
13013, 97, 321, 342, -14280, -109550, -12950, -667, 370, 7
13014, 137, 169, 363, -9800, -91840, -14560, -672, 373, 12
13015, 284, 108, 327, -6090, -74550, -16170, -672, 373, 16
13016, 169, 243, 328, -3500, -62230, -17570, -667, 364, 18
13017, 145, 973, 381, -3150, -41440, -19180, -664, 369, 19
13018, 106, 1386, 408, -4900, -32550, -19040, -660, 372, 19
13019, 64, 1686, 398, -8540, -26600, -18620, -655, 366, 22
13020, 29, 1517, 393, -13580, -26040, -18620, -651, 369, 19
13021, 24, 794, 454, -21840, -37940, -23100, -658, 370, 13
13022, 215, 541, 468, -21280, -37870, -27300, -658, 373, 22
13023, 279, 264, 393, -15820, -24920, -31570, -648, 366, 18
13024, 1000, 24, 303, -4690, -4480, -35490, -655, 372, 19
13025, 538, -125, 318, 5250, 48930, -37380, -646, 367, 21
13026, 554, 1433, 132, 19600, 99750, -35700, -646, 375, 19
13027, 333, 1806, 251, 16100, 93660, -32830, -648, 372, 19
13028, 26, 2049, 305, 5320, 69160, -32270, -640, 378, 21
13029, -299, 1970, 427, -7070, 26180, -33810, -649, 376, 10
13030, -384, 1565, 543, -18410, 2590, -36610, -651, 376, 10
13031, 43, 52, 401, -19180, 13790, -39620, -640, 373, 9
13032, 354, -230, 317, -12110, 44660, -38150, -643, 375, 13
13033, 218, -213, 326, -5180, 75320, -36750, -639, 375, 1
13034, 112, 147, 337, 210, 89740, -34230, -640, 379, 0
13035, -166, 1386, 330, -1470, 81480, -30940, -630, 376, -4
13036, -212, 1959, 268, -7840, 61040, -30380, -631, 387, 6
13037, -446, 2302, 293, -16660, 29400, -30940, -630, 375, -12
13038, -815, 2278, 253, -27440, -1330, -32830, -630, 376, -4
13039, -914, 1922, 349, -37660, -40530, -36120, -625, 379, -10
13040, -190, 372, 581, -47670, -96600, -46410, -630, 381, -15
13041, 383, 90, 605, -41160, -90160, -50050, -625, 391, -10
13042, 707, -75, 517, -27300, -48650, -50680, -613, 384, -15
13043, 941, -312, 483, -9450, 11620, -49770, -613, 385, -24
13044, 650, -577, 523, 6860, 70980, -49000, -612, 382, -19
13045, 116, -809, 356, 26460, 124810, -49630, -621, 382, -16
13046, 66, -539, 269, 32060, 129010, -49490, -607, 379, -15
13047, 309, -124, 180, 38220, 146090, -47880, -601, 381, -6
13048, 244, 996, 125, 45080, 175910, -42630, -606, 387, -15
13049, -652, 3997, 344, 29890, 185220, -29120, -612, 376, -9
13050, -1626, 3997, 91, 2380, 97440, -29960, -612, 385, -16
13051, -1524, 2678, 524, -28490, -8820, -34580, -604, 381, -21
13052, -816, 1972, 465, -45920, -97930, -37030, -603, 396, -18
13053, -37, 1519, 340, -47880, -79520, -30730, -604, 376, -27
13054, 660, -518, 353, -20860, 83580, -9520, -601, 384, -37
13055, -45, -1313, 642, -6650, 115080, -8750, -607, 384, -39
13056, 113, -982, 635, 8750, 105490, -7070, -601, 397, -27
13057, 450, 208, 291, 23730, 129430, -5040, -598, 396, -30
13058, 298, 1123, 52, 38780, 184240, 3780, -600, 391, -42
13059, -1457, 886, 84, 40810, 209160, 6790, -610, 396, -34
13060, -1350, 898, 281, 27370, 85820, -1750, -603, 400, -33
13061, -1094, 1498, 165, 10080, -15890, -8540, -615, 400, -33
13062, -156, 1946, 242, 2800, -49140, -8750, -591, 396, -28
13063, -204, 462, 277, 10780, 20930, -1540, -597, 402, -24
13064, -889, -313, 289, 10150, 13230, -3150, -604, 400, -34
13065, -1186, -51, 254, 6230, -38010, -6790, -597, 400, -27
13066, -712, 962, 252, 3010, -70070, -8820, -603, 393, -33
13067, -220, 1713, 282, 3920, -55090, -6930, -606, 396, -16
13068, -602, 1398, 199, 4060, -8330, -2170, -606, 396, -21
13069, -1027, 1508, 195, -5250, -39130, -3570, -598, 402, -21
13070, -834, 1737, 246, -16730, -91700, -5810, -600, 391, -13
13071, -294, 1757, 263, -24500, -114520, -5880, -601, 402, -27
13072, -24, 1367, 291, -24920, -59780, -770, -598, 399, -16
13073, -65, -306, 416, -12180, -32830, 910, -595, 394, -21
13074, 62, -533, 476, -4830, -20370, 770, -600, 397, -16
13075, 111, -92, 432, 3710, -9100, -70, -591, 397, -25
13076, 300, 873, 406, 14140, 16660, 630, -609, 393, -12
13077, -427, 1081, 356, 26530, 83440, 0, -600, 387, -24
13078, -539, 320, 380, 23660, 70840, -4340, -604, 396, -9
13079, -646, -111, 315, 17500, 28280, -9310, -591, 396, -27
13080, -34, 84, 280, 14910, 2870, -9590, -586, 382, -12
13081, 554, 452, 211, 20300, 24150, -6510, -604, 391, -12
13082, 197, -52, 239, 36540, 116060, 2310, -601, 382, -13
13083, -478, -70, 204, 37030, 108150, 1120, -595, 396, -12
13084, -536, 1631, 158, 32410, 70000, -1610, -600, 385, -3
13085, -605, 3431, 117, 22750, 40110, -4480, -597, 388, 0
13086, -658, 3453, 198, -4200, -16170, -11690, -601, 391, -1
13087, -810, 1430, 258, -16870, -64960, -15680, -604, 397, -10
13088, -308, 885, 230, -23730, -93940, -15960, -595, 399, -27
13089, 232, 945, 207, -22610, -77560, -11830, -597, 387, -12
13090, 207, 898, 182, -16100, -28280, -6300, -597, 397, -10
13091, -464, -280, 463, -7000, 17220, -5110, -603, 388, -6
13092, -558, -445, 455, -4480, -2660, -7910, -595, 394, -12
13093, 153, 68, 312, 1890, -3500, -6440, -597, 390, -10
13094, 505, 644, 178, 11340, 39270, -3990, -598, 384, -13
13095, -77, 574, 181, 19040, 87080, -2450, -594, 396, -12
13096, -741, 722, 198, 15400, 35560, -8820, -595, 406, -18
13097, -625, 2068, 123, 6370, -17710, -12740, -600, 391, -4
13098, -551, 3086, 18, -2310, -39480, -16100, -592, 396, -4
13099, -479, 2643, 107, -9310, -48580, -18130, -585, 402, -6
13100, -726, 1446, 274, -23450, -95130, -26390, -601, 388, -19
13101, -230, 34, 238, -23660, -112350, -26880, -594, 396, -16
13102, 508, 72, 328, -16590, -74130, -22540, -588, 399, -16
13103, 573, -159, 369, -1680, -12320, -17500, -585, 397, -15
13104, 543, -548, 576, 16660, 45010, -12320, -588, 402, -13
13105, -29, 148, 196, 48230, 103110, -10010, -588, 399, -13
13106, -276, 908, 95, 56420, 127960, -11830, -598, 393, -16
13107, -882, 1670, 130, 56280, 127680, -14350, -595, 399, -9
13108, -952, 2069, 261, 47810, 85680, -18690, -588, 390, -3
13109, -939, 2209, 116, 32760, 35210, -22190, -592, 409, 4
13110, -86, 1556, 286, 12040, -19600, -16660, -583, 405, 4
13111, 19, 706, 368, 10500, -140, -9100, -586, 402, 9
13112, -138, -213, 292, 14630, 28070, -2100, -585, 411, 7
13113, -180, -342, 218, 20230, 51800, 5880, -589, 400, 24
13114, -495, 262, 92, 24780, 76580, 11340, -586, 409, 6
13115, -972, 1904, -21, 22680, 63070, 9520, -595, 396, 21
13116, -1279, 2556, -112, 13370, 36960, 5880, -586, 393, 13
13117, -1167, 2266, -18, -280, -16800, 1120, -586, 394, 21
13118, -1072, 1870, 1, -14000, -77420, -1960, -597, 399, 13
13119, -281, 1525, -75, -25760, -124250, 770, -595, 393, 22
13120, -265, 1500, -66, -25270, -110040, 4200, -580, 397, 12
13121, -927, 1205, -36, -26880, -105840, 3850, -586, 393, 12
13122, -1561, 616, 2, -32060, -137900, 70, -585, 394, 15
13123, -1091, 434, 150, -36050, -187040, -5740, -583, 396, 15
13124, 29, -217, 215, -29330, -172830, -8330, -582, 400, 10
13125, 491, -554, 308, -17780, -114590, -5040, -585, 399, 13
13126, 242, -787, 314, -6300, -67550, -2590, -583, 393, 12
13127, -161, -926, 362, 840, -45150, -1890, -585, 396, 3
13128, 279, 339, 292, 12320, -27230, -3500, -585, 393, 18
13129, -396, 2220, 187, 16380, 15680, -5740, -586, 393, 6
13130, -374, 2712, 683, 16310, 33880, -14000, -582, 393, 7
13131, -1099, 2638, 432, 16520, -1190, -24500, -576, 393, 7
13132, -63, 2799, 552, 13370, -21000, -29120, -574, 400, 16
13133, 815, 682, 312, 20020, 48440, -24570, -573, 391, 4
13134, -61, -715, 374, 24010, 94570, -21980, -580, 402, 24
13135, -189, -1003, 358, 28560, 89110, -16450, -573, 390, 7
13136, -145, -637, 240, 32900, 93310, -13300, -576, 394, 24
13137, 200, -258, 179, 40390, 117180, -6930, -568, 397, 21
13138, 85, -161, 99, 56910, 188160, 1820, -580, 399, 27
13139, -543, 1203, 20, 57540, 176890, 1120, -577, 400, 27
13140, -1445, 3087, -384, 46550, 137340, -3640, -583, 396, 34
13141, -1061, 3646, -37, 30030, 66150, -8890, -582, 390, 31
13142, -196, 2077, 201, -9030, -54810, -12180, -580, 397, 37
13143, -116, 1072, 230, -18690, -70420, -9310, -576, 399, 34
13144, -7, 240, 210, -17430, -46130, -1330, -580, 394, 19
13145, 186, -83, 201, -8470, 13930, 7560, -576, 394, 24
13146, 141, -230, 205, 980, 72170, 17290, -586, 403, 27
13147, -1427, 957, -46, 2450, 89530, 18550, -583, 397, 16
13148, -1159, 1200, 86, -3920, 57960, 14490, -579, 402, 30
13149, -704, 1105, 92, -9590, 26180, 11620, -600, 399, 24
13150, -170, 1077, 54, -13580, 17990, 11830, -595, 406, 27
13151, -82, 915, 79, -15050, 18970, 13650, -588, 405, 25
13152, -495, 435, 83, -17570, 8050, 14700, -594, 405, 22
13153, -425, 659, 90, -19600, -5810, 13720, -588, 400, 27
13154, -363, 1128, 20, -21490, -18480, 12250, -580, 396, 21
13155, -366, 1305, 3, -24290, -23240, 10150, -591, 394, 12
13156, -539, 1324, 32, -31640, -53130, 2870, -600, 397, 9
13157, 81, 1180, 321, -32830, -75460, -3780, -594, 390, 19
13158, -324, 1626, 429, -26880, -85960, -5110, -585, 402, 19
13159, 867, 1733, 673, -14420, -44520, -3290, -585, 400, 1
13160, 732, 1343, 256, 1820, 31990, -1820, -594, 391, 12
13161, -535, -451, 307, 18200, 98490, -5040, -592, 396, 19
13162, -821, -296, 139, 17010, 57470, -7560, -592, 396, 19
13163, 145, 100, 225, 17430, 41580, -7910, -589, 402, 7
13164, 615, 533, 94, 23030, 68180, -5040, -588, 397, 9
13165, 619, 452, 106, 30170, 115500, -700, -592, 390, 7
13166, -614, 180, 143, 30520, 103250, -2380, -588, 394, 7
13167, -748, 1040, 46, 25130, 60970, -6440, -591, 384, 10
13168, -298, 2533, -54, 20650, 38570, -8330, -591, 394, 16
13169, -388, 3718, -352, 14560, 38430, -12390, -594, 399, 19
13170, -1417, 1933, -76, -13510, -49840, -24920, -592, 390, 15
13171, -1195, 1305, 25, -28350, -133910, -29260, -594, 388, 13
13172, -248, 864, 173, -36050, -164150, -25550, -591, 391, 9
13173, 541, 301, 200, -30240, -131320, -17570, -583, 390, 6
13174, 620, -163, 176, -17640, -50960, -6510, -586, 399, 3
13175, -853, -905, 281, -1820, 19950, 3500, -591, 394, 7
13176, -743, -602, 247, 1960, -13860, 3780, -586, 397, 12
13177, -152, 470, 110, 5950, -12040, 3780, -588, 397, 4
13178, -619, 1566, -56, 11480, 24850, 1540, -588, 397, 3
13179, -1242, 1709, -11, 14000, 20230, -12740, -591, 396, 9
13180, -1229, 1456, 88, 630, -46550, -22470, -574, 405, 6
13181, -325, 1259, 320, -6230, -96670, -26600, -585, 400, -4
13182, 681, 1304, 425, -3710, -94500, -20440, -582, 399, -7
13183, 871, 773, 249, 6650, -23940, -11690, -577, 399, 3
13184, -539, -695, 238, 23520, 71610, -1400, -582, 403, 3
13185, -829, -632, 206, 23310, 43120, -1610, -580, 397, 15
13186, -177, 287, 188, 24080, 21560, -770, -580, 405, 16
13187, 112, 1991, 3, 27160, 50890, 980, -582, 400, 9
13188, -578, 2701, -112, 28070, 91000, 490, -582, 406, 15
13189, -1627, 1535, -70, 7700, 9170, -11760, -583, 399, 22
13190, -851, 1847, 36, -7630, -74690, -14910, -582, 411, 15
13191, 23, 1937, 107, -16730, -107800, -11760, -579, 396, 25
13192, 146, 1424, 21, -17010, -77560, -5600, -574, 400, 22
13193, -611, 834, -110, -12040, -34370, -560, -577, 396, 19
13194, -1667, 564, -60, -15050, -66640, -4900, -582, 393, 21
13195, -859, 636, 96, -17920, -103950, -6370, -576, 391, 10
13196, -630, 497, 134, -19250, -104580, -6370, -580, 393, 12
13197, 49, 179, 145, -14840, -86380, -210, -576, 388, 10
13198, -582, -8, 143, -4340, -37450, 7210, -579, 394, 15
13199, -781, -59, 180, -2870, -38570, 6790, -576, 394, 7
13200, -1236, 386, 59, -2450, -52150, 4760, -568, 387, 15
13201, -854, 1517, 54, -1680, -64190, 2240, -580, 397, 13
13202, -1378, 2846, -241, -5320, -65240, -3220, -573, 391, 13
13203, -1379, 1959, 68, -26040, -143430, -16730, -580, 396, 12
13204, -1015, 1298, 191, -38080, -201530, -17850, -568, 390, 15
13205, 342, 697, 341, -40600, -210770, -18130, -553, 397, -3
13206, 278, 188, 231, -29330, -159250, -11830, -564, 396, 1
13207, 1778, 121, 489, 9450, 28000, 8610, -561, 403, -1
13208, 335, -496, 395, 21630, 79100, 15960, -559, 393, -3
13209, -613, -593, 300, 23870, 94640, 12810, -561, 393, -6
13210, -867, 172, 156, 24500, 60760, 7910, -568, 397, 1
13211, -790, 1424, 65, 22330, 63770, 2940, -571, 397, 0
13212, -754, 1010, 161, 21840, 90860, -5390, -567, 388, 4
13213, -464, 443, 180, 18690, 76510, -8960, -571, 396, 1
13214, -327, 1463, 10, 12740, 51170, -10360, -562, 391, 1
13215, -216, 2594, -139, 5320, 36190, -10150, -567, 397, 12
13216, -326, 2611, -49, -3010, 27510, -10500, -571, 391, 3
13217, -635, 882, 109, -20230, -33040, -16520, -561, 400, -3
13218, -9, 561, 204, -25060, -52570, -16520, -556, 399, -4
13219, 433, 373, 198, -23800, -36050, -13230, -565, 396, -7
13220, 353, 20, 169, -17150, 2590, -8330, -576, 403, 0
13221, 350, -40, 108, -7350, 53550, -8120, -561, 399, 4
13222, -1641, 2347, -304, -13860, 5670, -15890, -574, 402, -1
13223, -1338, 2546, -97, -27370, -56210, -25900, -565, 406, -4
13224, -555, 2448, -14, -40530, -126630, -32690, -558, 394, -6
13225, 35, 1952, 104, -50680, -157220, -35350, -556, 402, -19
13226, -259, 270, 387, -49140, -139930, -36330, -556, 399, -18
13227, 534, -229, 105, -36890, -118790, -30660, -555, 388, -19
13228, 1379, -583, 478, -29050, -27370, -25690, -547, 403, -19
13229, -488, -629, 156, -21000, 3710, -22050, -543, 396, -22
13230, 596, -832, 497, -14630, 9800, -17850, -558, 385, -24
13231, 638, -214, 265, -1750, 36470, -14210, -546, 387, -30
13232, 464, -172, 191, 5950, 80220, -11900, -546, 399, -19
13233, 208, -247, 169, 13370, 105840, -7630, -546, 390, -25
13234, 342, -32, 595, 16660, 133560, -11900, -543, 390, -24
13235, -2567, 2134, 691, 26320, 112280, -38920, -544, 385, -13
13236, -1619, 2788, 54, 19390, 128730, -50820, -535, 390, -24
13237, 448, 2518, 509, 15960, 86030, -51380, -538, 391, -19
13238, 61, 1322, 246, 4900, 77770, -50120, -543, 384, -9
13239, -76, 381, 300, -1120, 58800, -45780, -529, 390, -16
13240, 192, 74, 234, 8190, 80710, -33880, -528, 387, -21
13241, 163, 184, 222, 15750, 129080, -27370, -538, 384, -22
13242, -422, 291, 105, 20860, 162260, -25270, -520, 384, -24
13243, -751, 954, 42, 21140, 156450, -24360, -529, 387, -13
13244, -706, 1825, 105, 14770, 131810, -24990, -525, 388, -12
13245, -803, 2125, 106, -5740, 54040, -24920, -528, 390, -18
13246, -979, 1474, 111, -14140, 13440, -25690, -517, 382, -19
13247, -948, 912, 126, -19040, -17430, -25550, -523, 390, -22
13248, -606, 491, 150, -18900, -28700, -24010, -529, 394, -16
13249, -122, 106, 251, -7980, 12740, -15820, -517, 385, -24
13250, -98, 39, 267, -2590, 37240, -9870, -526, 384, -19
13251, -593, 124, 218, 1820, 55160, -7420, -523, 387, -28
13252, -980, 713, 20, 4830, 61460, -3920, -532, 391, -12
13253, -829, 1267, 58, 5950, 72170, -1190, -520, 391, -16
13254, -1111, 1361, 170, -700, 53760, 1540, -519, 396, -15
13255, -1304, 1391, 0, -8540, 15890, 2660, -522, 397, -18
13256, -1076, 1282, 64, -16870, -23170, 6370, -522, 390, -21
13257, -1122, 1023, 20, -23380, -44800, 10150, -511, 391, -30
13258, -1112, 638, 24, -25200, -61180, 13440, -525, 384, -33
13259, -1234, 462, 40, -23240, -74760, 15750, -519, 382, -21
13260, -1155, 533, 70, -22750, -79030, 15540, -517, 384, -30
13261, -1001, 572, 28, -21700, -89250, 15260, -523, 381, -28
13262, -832, 496, 105, -21420, -90160, 14910, -529, 384, -33
13263, -506, 576, 361, -14350, -82320, 12670, -525, 382, -30
13264, -125, 750, 416, -5810, -69440, 12180, -537, 387, -36
13265, -224, 899, 300, 3990, -30170, 11200, -522, 381, -33
13266, -157, 652, 285, 12880, 8960, 12670, -528, 376, -34
13267, -108, 213, 343, 17990, 39130, 11410, -522, 376, -27
13268, -49, 825, 172, 17850, 47040, 13300, -531, 384, -28
13269, 47, 1365, 116, 16520, 66220, 16870, -526, 388, -25
13270, 110, 1428, 120, 15400, 94500, 21910, -523, 385, -30
13271, -329, 1217, 86, 11830, 112140, 25060, -541, 385, -21
13272, -623, 1004, 97, 5320, 103600, 25690, -528, 373, -25
13273, -296, 1347, 81, -7630, 72240, 27510, -540, 376, -24
13274, -170, 1337, 18, -10990, 75950, 29890, -534, 388, -21
13275, -385, 986, 46, -13860, 77210, 31500, -538, 379, -31
13276, -733, 756, 68, -17640, 57750, 30520, -535, 390, -27
13277, -700, 1107, -23, -26250, -13230, 25340, -540, 382, -28
13278, -373, 1216, 149, -28000, -29400, 23450, -543, 385, -25
13279, -418, 1130, 156, -27720, -34230, 22190, -550, 385, -36
13280, -416, 817, 306, -25900, -31570, 20090, -552, 382, -30
13281, -460, 734, 213, -21630, -29540, 18970, -546, 382, -36
13282, 17, 622, 268, -8680, 18760, 21000, -549, 384, -36
13283, 61, 446, 311, -770, 50190, 24640, -553, 396, -48
13284, 147, 549, 270, 9520, 80920, 28210, -552, 381, -25
13285, 79, 999, 122, 19320, 117530, 32970, -552, 400, -36
13286, 113, 1265, 15, 25550, 155610, 39900, -558, 391, -28
13287, -696, 932, -15, 17360, 149730, 39480, -549, 394, -25
13288, -640, 1317, -13, 4690, 100240, 38780, -565, 388, -28
13289, -355, 1879, -64, -6580, 56840, 39410, -555, 393, -30
13290, -236, 2002, -123, -14420, 39970, 40530, -565, 391, -31
13291, -894, 803, -44, -25690, 9170, 36960, -573, 388, -30
13292, -948, 457, -6, -31430, -25900, 32970, -579, 378, -36
13293, -616, 511, -25, -34370, -53620, 30170, -570, 388, -28
13294, -327, 554, -46, -34020, -53270, 28980, -577, 382, -33
13295, -256, 496, -20, -31010, -39060, 28350, -579, 382, -36
13296, -726, 582, 5, -31570, -41300, 23100, -576, 385, -30
13297, -790, 960, 32, -36330, -67620, 19040, -583, 382, -28
13298, -689, 1329, -39, -41930, -90440, 15050, -579, 390, -36
13299, -577, 1380, -9, -45920, -103390, 11690, -576, 387, -39
13300, -406, 1028, 85, -47810, -113820, 1330, -583, 376, -52
13301, -365, 429, 706, -30800, -108640, -1400, -583, 385, -46
13302, 861, 1468, 574, -2590, -45080, 5740, -585, 384, -51
13303, 1263, 1372, 128, 22400, 105210, 10780, -579, 390, -43
13304, 613, -291, 232, 45080, 205310, 16800, -576, 382, -49
13305, -925, -179, -191, 51870, 174370, 15470, -585, 387, -45
13306, 199, 1580, 146, 44030, 148400, 19880, -588, 384, -33
13307, 817, 2904, 6, 37310, 142660, 24640, -583, 379, -46
13308, 387, 2933, -121, 28840, 141050, 25690, -589, 379, -36
13309, -963, 1957, -175, 11690, 107030, 21420, -594, 387, -34
13310, -686, 1624, -27, -20720, -30240, 14000, -586, 387, -39
13311, -202, 1496, -114, -24640, -33390, 17220, -595, 385, -49
13312, -60, 761, -53, -22960, 6790, 20860, -592, 376, -45
13313, -492, -282, 61, -19040, 34090, 21350, -592, 399, -43
13314, -667, -659, 67, -18760, 12740, 21840, -594, 393, -48
13315, -314, 1167, -168, -19740, 6160, 24430, -597, 387, -51
13316, -129, 1633, -37, -21840, 11130, 24430, -595, 391, -57
13317, -663, 1701, -63, -28770, -2730, 21000, -604, 393, -55
13318, -1113, 1439, 44, -40740, -46690, 16240, -610, 397, -63
13319, -1081, 1540, -156, -61460, -165620, 7350, -598, 388, -67
13320, -824, 1314, -114, -66290, -175980, 5250, -597, 399, -61
13321, -889, 463, -74, -66850, -168280, 2450, -603, 399, -70
13322, -1010, -259, -178, -64960, -160020, -560, -607, 388, -61
13323, -485, -559, 6, -61600, -162260, -1260, -609, 390, -73
13324, -132, 10, 847, -34440, -129080, -8750, -606, 399, -72
13325, 1428, 1695, 992, -3290, -67970, -5250, -606, 381, -72
13326, 818, 1999, 805, 23800, 79450, -4200, -603, 387, -63
13327, 443, 1165, 626, 49210, 173110, 1470, -603, 390, -66
13328, -86, 518, 142, 50540, 162890, 1680, -600, 396, -66
13329, -647, 661, 27, 36330, 100450, 2310, -600, 385, -70
13330, 598, 1830, 123, 28980, 61320, 9030, -604, 384, -57
13331, 276, 2301, -213, 26320, 90440, 13090, -604, 399, -64
13332, -377, 1474, -26, 23800, 122920, 16590, -610, 388, -49
13333, -1047, 464, 138, 7700, 44590, 8260, -612, 385, -54
13334, -327, 1125, 49, -1540, 700, 9170, -603, 394, -55
13335, 226, 1571, 5, -4970, 1610, 12390, -606, 390, -61
13336, -39, 1338, -39, -4690, 28910, 14070, -610, 382, -67
13337, -725, 691, 23, -7420, 36750, 12320, -606, 394, -75
13338, -800, 840, 62, -21420, -43540, 6370, -604, 391, -72
13339, -245, 1458, 40, -25830, -60690, 6790, -610, 388, -73
13340, -135, 1515, 21, -27650, -45290, 8120, -613, 381, -69
13341, -522, 1022, 88, -29610, -23100, 7770, -616, 379, -82
13342, -817, 554, 282, -35980, -56770, 2940, -615, 384, -73
13343, -115, 883, 595, -32410, -67620, 3990, -610, 382, -79
13344, 525, 1386, 472, -20020, -24710, 8260, -601, 388, -82
13345, 506, 1294, 296, -3780, 60410, 14070, -609, 387, -87
13346, 172, 445, 519, 9100, 126000, 18550, -621, 391, -82
13347, -388, 15, 136, 13930, 114940, 19670, -616, 385, -97
13348, -101, 511, 36, 9100, 92120, 20160, -621, 382, -88
13349, 167, 850, 60, 7770, 79170, 22470, -612, 397, -97
13350, 172, 896, 2, 6440, 88970, 24150, -612, 388, -96
13351, -94, 616, 90, 3500, 86940, 24430, -616, 400, -90
13352, -347, 421, 115, -7980, 43330, 21210, -618, 399, -90
13353, -95, 395, -25, -10710, 32620, 22050, -619, 385, -94
13354, 397, 230, 211, -8610, 43050, 25200, -625, 390, -84
13355, 346, 431, 387, -980, 65380, 28210, -619, 399, -97
13356, 394, 596, 290, 20370, 133910, 36820, -622, 397, -105
13357, 253, 2071, 151, 30940, 162400, 38080, -619, 391, -100
13358, -1156, 3997, -409, 30520, 174860, 31850, -621, 388, -94
13359, -1459, 3997, 16, 17290, 119560, 20370, -630, 379, -100
13360, -1402, 2343, -91, -5320, 13440, 7280, -621, 379, -91
13361, -258, 725, -42, -40250, -166390, 7350, -630, 388, -99
13362, 586, 1215, -178, -36610, -159040, 15470, -633, 379, -90
13363, 716, 942, -186, -31080, -96530, 22470, -633, 384, -100
13364, -83, -20, 20, -29330, -61880, 25130, -631, 388, -102
13365, -874, -524, 135, -36610, -83230, 20510, -624, 376, -96
13366, 94, 534, -35, -40040, -152740, 17150, -642, 384, -102
13367, 513, 960, -118, -34160, -112630, 20510, -621, 382, -100
13368, -90, 656, -46, -30030, -55230, 20790, -642, 375, -100
13369, -901, 202, 89, -31080, -40950, 15190, -642, 375, -94
13370, -1251, 1970, 600, -33320, -115010, -9380, -642, 384, -97
13371, -774, 3817, 536, -22470, -100870, -16870, -631, 373, -109
13372, 441, 3397, 572, -7140, -36680, -17990, -646, 373, -100
13373, -57, 1269, 584, 3640, 44170, -16450, -640, 387, -94
13374, 746, -472, 443, 11970, 46270, -16660, -637, 393, -106
13375, 242, 41, 285, 9030, -11060, -19250, -636, 375, -108
13376, 191, 378, 63, 9800, 3150, -16940, -640, 381, -105
13377, 541, 333, 117, 16520, 24990, -9940, -631, 379, -111
13378, 29, 34, 69, 19040, 62860, -6580, -631, 388, -102
13379, -397, 144, 80, 18550, 53410, -6650, -625, 373, -106
13380, -513, 1912, 83, 4760, 7840, -10850, -633, 385, -97
13381, -545, 2095, 122, -2730, -3500, -12390, -627, 379, -105
13382, -697, 1319, 161, -10080, -11970, -13930, -631, 388, -105
13383, -698, 530, 69, -15540, -29610, -14980, -630, 385, -97
13384, 21, 857, 20, -18340, -36890, -10990, -621, 387, -115
13385, -27, 1408, 50, -17010, -12180, -7350, -628, 399, -115
13386, -451, 1713, 76, -17570, 1540, -6650, -619, 393, -109
13387, -988, 1668, 423, -20720, -17710, -11130, -634, 390, -111
13388, -1196, 2526, 347, -20720, -61110, -16380, -631, 393, -115
13389, -409, 2060, -40, -14840, -54110, -13510, -628, 388, -111
13390, -174, 207, 137, -11060, -34650, -9100, -621, 387, -112
13391, -873, -398, 83, -14700, -43610, -8680, -631, 399, -112
13392, -782, -263, 89, -19180, -92820, -9100, -625, 387, -112
13393, -170, 328, 30, -20090, -109200, -7910, -630, 384, -106
13394, 397, 373, 31, -8750, -36330, 3640, -619, 391, -96
13395, -63, -191, 128, -5950, -7280, 6230, -627, 387, -105
13396, -487, -380, 152, -7910, -16170, 5390, -625, 382, -111
13397, -406, -45, 102, -10780, -41860, 3360, -619, 384, -109
13398, 129, 756, 21, -5740, -8750, 5670, -627, 388, -103
13399, 336, 371, 502, -70, 25970, 5740, -630, 393, -103
13400, -195, 466, 787, 8960, 45360, 910, -624, 393, -115
13401, -140, 1434, 680, 22960, 68530, -4480, -637, 387, -106
13402, 35, 2858, 210, 38080, 116760, -4480, -618, 385, -105
13403, -731, 2067, -184, 35420, 168000, -7560, -622, 384, -106
13404, -1209, 1000, 109, 19670, 103180, -14560, -621, 379, -109
13405, -905, 941, 223, 1820, -7840, -22120, -613, 381, -118
13406, 153, 1626, 31, -8400, -58310, -22750, -618, 384, -103
13407, 355, 1844, -436, -5530, 16660, -11130, -622, 388, -108
13408, -483, 231, 0, -5670, 37660, -13020, -615, 387, -106
13409, -1166, -137, 134, -13720, -16800, -20930, -621, 391, -106
13410, -913, 385, -61, -22400, -77490, -29750, -612, 381, -114
13411, -210, 913, -102, -22960, -104510, -32480, -615, 388, -105
13412, 576, 21, 408, -5320, -43820, -28210, -615, 387, -118
13413, 697, -105, 422, 6650, -11900, -27370, -622, 391, -103
13414, 332, 191, 170, 16870, 9730, -26810, -612, 385, -120
13415, 429, 395, 70, 23800, 34790, -26110, -615, 391, -112
13416, 95, 533, 9, 26530, 55580, -26320, -613, 397, -105
13417, -1141, 1174, 5, 17080, 44240, -40250, -606, 393, -117
13418, -1003, 1310, 64, 10290, 24570, -49630, -591, 384, -108
13419, -1074, 1910, -98, 4620, -11270, -55720, -598, 397, -114
13420, -287, 2276, -22, -1890, -41300, -58590, -594, 390, -112
13421, -659, 2086, -85, -25130, -113470, -61740, -592, 394, -106
13422, -1433, 1263, 51, -36960, -178430, -68250, -588, 396, -118
13423, -960, 1446, 92, -41440, -232750, -75320, -580, 400, -118
13424, -639, 1614, -56, -41580, -238070, -79940, -583, 406, -118
13425, -40, 1062, 87, -38850, -220850, -83650, -582, 403, -127
13426, 479, -106, 263, -34860, -178710, -90020, -579, 408, -117
13427, -242, 225, 90, -32830, -157220, -92610, -570, 402, -120
13428, 253, 477, 87, -26110, -150290, -92120, -570, 400, -121
13429, 97, 412, 133, -21490, -112560, -93240, -564, 402, -126
13430, 500, 184, 141, -16380, -85890, -92610, -558, 403, -130
13431, 225, 45, 188, -15120, -17710, -95480, -558, 403, -133
13432, -49, 321, 191, -13580, 12810, -99120, -552, 402, -118
13433, -45, 524, 104, -7280, 27720, -101010, -547, 397, -121
13434, 238, 283, 185, -1960, 62650, -104510, -538, 393, -135
13435, 271, 135, 171, 5740, 139370, -105630, -529, 396, -139
13436, -526, 326, 81, 10570, 150360, -102620, -513, 390, -123
13437, -493, 273, 107, 14980, 168210, -98210, -516, 385, -118
13438, -522, 358, 64, 22820, 169470, -91140, -514, 397, -123
13439, -17, 349, 139, 27510, 193480, -86380, -502, 387, -120
13440, 155, 390, -55, 35700, 239050, -76720, -501, 387, -112
13441, -152, 517, -177, 38570, 254870, -71820, -490, 387, -105
13442, -69, 630, -139, 40110, 264530, -66780, -492, 382, -102
13443, -535, 1293, -189, 39970, 272160, -63560, -487, 373, -94
13444, -1178, 2445, -286, 36330, 272720, -65310, -483, 387, -87
13445, -1834, 2340, -136, 23520, 196910, -79170, -474, 376, -85
13446, -1715, 1640, -316, 16310, 129290, -84070, -474, 381, -84
13447, -1483, 1559, -473, 11550, 58590, -86800, -460, 366, -81
13448, -1418, 1552, -538, 7070, 2660, -89110, -445, 375, -91
13449, -982, 1123, -271, -4970, -80570, -93940, -448, 366, -91
13450, -767, 621, -240, -9310, -123340, -96040, -451, 376, -90
13451, -684, 795, -273, -12530, -146510, -97160, -453, 361, -96
13452, -588, 811, -249, -14000, -160650, -97160, -435, 361, -109
13453, -644, 504, -145, -16800, -166460, -97580, -436, 351, -109
13454, -653, 198, -69, -24010, -174580, -100520, -423, 361, -117
13455, -491, 351, -59, -25620, -158550, -101360, -427, 346, -135
13456, -458, 379, -31, -24290, -126980, -99750, -412, 345, -139
13457, -259, 277, 21, -22260, -91700, -96740, -409, 351, -151
13458, -455, 110, 30, -21350, -62440, -93730, -411, 342, -153
13459, -548, 116, -144, -19740, -34440, -88830, -406, 340, -148
13460, -275, 52, -419, -15050, -25900, -84140, -405, 328, -162
13461, 330, -40, -483, -4550, -5390, -76930, -391, 333, -165
13462, -507, 199, -331, 4760, 35210, -71470, -391, 324, -160
13463, -1637, 285, 60, 13790, 107240, -75740, -384, 327, -162
13464, -2521, 468, -219, 14140, 130550, -84700, -375, 321, -160
13465, -1721, 528, -153, 16310, 118860, -95200, -381, 319, -154
13466, -1043, 501, -321, 15540, 110320, -98000, -369, 316, -141
13467, -489, 403, -237, 16170, 106540, -94500, -367, 307, -144
13468, -401, 218, -248, 18620, 100030, -82950, -364, 309, -132
13469, -665, 215, -318, 18340, 103250, -78890, -366, 303, -133
13470, -653, 274, -286, 18690, 103740, -77000, -351, 309, -132
13471, -765, 401, -420, 20090, 111720, -77770, -345, 300, -124
13472, -630, 619, -570, 23940, 143220, -79590, -348, 292, -111
13473, -504, 476, -784, 35000, 268590, -85260, -345, 283, -103
13474, -710, 173, -703, 36750, 292250, -89390, -346, 279, -84
13475, -985, 258, -802, 38290, 268590, -94080, -333, 285, -61
13476, -753, 339, -787, 41720, 240240, -98560, -334, 280, -52
13477, -819, -85, -680, 49140, 175630, -109480, -327, 264, -39
13478, -1009, -172, -787, 48790, 139440, -116900, -328, 274, -33
13479, -831, 12, -755, 48930, 99680, -124740, -322, 252, -24
13480, -722, 289, -750, 49630, 75040, -131320, -324, 249, -15
13481, -676, 351, -581, 50050, 55230, -136430, -309, 252, -31
13482, -889, 157, -285, 48650, 24360, -148540, -306, 238, -10
13483, -802, 269, -275, 45990, 12670, -155470, -292, 228, -13
13484, 3117, 268, 589, 52850, 15540, -161700, -288, 217, -19
13485, -1420, 574, -1112, -165620, 999040, 220920, -298, 210, 34
13486, -3997, -2141, -3997, -54110, 507430, 1216110, -357, 267, 72
13487, -2231, -2021, -3997, -64050, 358190, 70280, -355, 273, 75
13488, 3495, 2119, 3298, 81060, -561400, -153370, -345, 273, 46
13489, -3548, -371, -3997, -46200, 806960, 2310, -358, 264, 79
13490, 2833, -1322, 1411, 99890, -959350, -98700, -348, 265, 61
13491, 589, -957, -1960, 91560, -781690, -85050, -357, 280, 78
13492, 1616, 2942, 2622, -28910, 403830, 38920, -339, 261, 51
13493, -1345, -320, -2501, 31710, 21140, 3080, -357, 270, 69
13494, -1324, 770, 1048, 9100, 167090, 26600, -348, 273, 73
13495, -2022, -422, -1256, 10640, -42630, -10920, -348, 276, 73
13496, -417, 528, -978, 2380, -159320, -13510, -352, 273, 79
13497, 58, 686, 406, -10640, 63350, 14280, -346, 277, 55
13498, -1320, -162, -1264, -840, 29400, 560, -352, 268, 63
13499, -1222, 432, -76, -4270, 23310, -2800, -354, 274, 75
13500, -1295, 388, -529, -4970, -45010, -9030, -352, 264, 64
13501, -212, 138, -213, 3150, -83930, -9100, -348, 264, 66
13502, -976, 172, -323, -10920, 89320, 9310, -348, 267, 72
13503, -1123, 274, -289, 4830, -49490, -9100, -351, 270, 66
13504, -759, 175, -222, -4270, 9520, 1750, -345, 270, 69
13505, -742, 189, -474, 1470, -5180, -280, -348, 273, 72
13506, -887, 449, -182, -630, 28630, 2730, -346, 262, 57
13507, -1110, 248, -480, 3570, -6790, -840, -346, 271, 66
13508, -856, 305, -422, 210, 5530, 630, -346, 273, 70
13509, -849, 310, -293, 2100, -3290, -630, -340, 265, 60
13510, -826, 338, -156, -630, -1400, 0, -343, 259, 67
13511, -954, 338, -478, -770, 1750, -560, -345, 270, 64
13512, -894, 216, -402, -490, -4340, -630, -352, 265, 58
13513, -828, 325, -267, -560, 700, 70, -343, 271, 61
13514, -847, 253, -367, 70, 12810, 1400, -348, 261, 57
13515, -943, 278, -485, 1680, -7490, -1330, -354, 276, 67
13516, -916, 281, -401, -350, 10640, 840, -349, 274, 67
13517, -884, 286, -327, 1610, -7770, -840, -349, 264, 64
13518, -843, 329, -301, -350, 1540, 420, -348, 259, 67
13519, -874, 326, -367, 210, 210, -560, -346, 256, 63
13520, -963, 266, -499, -630, 3080, 210, -346, 268, 67
13521, -841, 292, -205, 560, -3920, -420, -348, 264, 60
13522, -898, 302, -430, -630, -2380, 70, -340, 268, 64
13523, -806, 345, -211, -420, 2800, 350, -345, 265, 64
13524, -883, 266, -299, 280, 3290, 140, -346, 270, 73
13525, -927, 307, -409, 350, -2240, -350, -348, 273, 63
13526, -819, 295, -238, 280, -1960, 70, -351, 271, 64
13527, -888, 364, -417, -770, 3360, 280, -349, 267, 75
13528, -849, 299, -322, -770, 5880, 350, -345, 271, 55
13529, -853, 273, -252, 910, -6790, -770, -351, 264, 64
13530, -902, 322, -401, -910, 3500, 560, -339, 271, 78
13531, -810, 315, -266, 420, -3850, -350, -349, 265, 69
13532, -919, 328, -452, -560, 5600, 280, -355, 262, 72
13533, -927, 307, -391, -210, 2870, 140, -352, 267, 58
13534, -843, 296, -290, 560, -4480, -280, -352, 268, 64
13535, -876, 341, -374, -700, 3990, 420, -342, 259, 67
13536, -858, 307, -358, 280, -3220, -560, -348, 264, 72
13537, -929, 309, -395, -560, 5670, 280, -348, 268, 69
13538, -881, 309, -332, -490, 3640, 490, -342, 271, 61
13539, -843, 318, -347, 490, -4340, -420, -352, 264, 75
13540, -882, 321, -361, -560, 5110, 350, -348, 267, 72
13541, -906, 304, -394, 420, -2380, -490, -342, 267, 67
13542, -904, 292, -338, 280, -3290, -280, -345, 270, 64
13543, -852, 319, -316, -420, 1960, 210, -343, 261, 64
13544, -881, 323, -397, 0, -1260, -280, -349, 276, 60
13545, -891, 298, -337, -210, 2870, 70, -345, 264, 57
13546, -916, 299, -400, 210, -1610, -280, -352, 267, 67
13547, -875, 326, -386, 0, -1330, -140, -349, 271, 61
13548, -858, 310, -321, -140, 1540, 70, -345, 270, 64
13549, -915, 313, -411, 0, 350, -210, -352, 264, 63
13550, -883, 289, -323, 140, 70, -70, -348, 270, 66
13551, -897, 313, -382, -70, -210, -70, -348, 262, 58
13552, -892, 324, -394, -210, 1330, 0, -357, 267, 66
13553, -875, 299, -335, 140, -350, -210, -343, 264, 67
13554, -916, 305, -391, -210, 1400, 0, -354, 268, 73
13555, -864, 299, -321, 210, -1610, -140, -342, 273, 64
13556, -885, 319, -372, 140, -1190, -210, -346, 273, 66
13557, -906, 311, -384, -210, 2100, 70, -340, 270, 64
13558, -884, 299, -348, 210, -1470, -280, -352, 273, 64
13559, -894, 307, -360, -210, 1400, 70, -348, 264, 66
13560, -861, 311, -342, 140, -1680, -210, -348, 264, 61
13561, -882, 308, -364, 210, -1330, -280, -337, 265, 67
13562, -898, 301, -358, -210, 1890, 140, -345, 265, 70
13563, -882, 306, -359, 210, -1610, -210, -339, 264, 57
13564, -875, 310, -344, -210, 1470, 140, -348, 271, 63
13565, -875, 316, -366, 70, -1050, -210, -349, 267, 66
13566, -894, 306, -373, 140, -840, -280, -348, 265, 73
13567, -882, 301, -340, -70, 840, 0, -348, 264, 64
13568, -880, 315, -366, 70, -770, -70, -352, 268, 60
13569, -870, 308, -340, -70, 910, 70, -351, 270, 66
13570, -891, 301, -343, 0, 700, -70, -349, 268, 60
13571, -893, 309, -373, 0, -280, -70, -355, 271, 67
13572, -870, 305, -336, -70, 210, 0, -351, 268, 75
13573, -884, 315, -371, 0, 140, -70, -342, 267, 66
13574, -876, 305, -343, 0, 210, -70, -343, 262, 70
13575, -879, 304, -344, 0, -210, -140, -354, 268, 66
13576, -886, 312, -365, 0, 280, 0, -354, 274, 69
13577, -870, 308, -344, 0, -210, -140, -360, 267, 64
13578, -889, 311, -369, -140, 700, 0, -349, 264, 64
13579, -881, 304, -350, 70, -280, -140, -339, 265, 63
13580, -873, 308, -348, 70, -560, -140, -346, 270, 70
13581, -882, 311, -360, -70, 770, 0, -343, 265, 67
13582, -877, 308, -354, 70, -350, -140, -345, 273, 63
13583, -891, 306, -361, -70, 840, 0, -351, 273, 66
13584, -883, 308, -355, -70, 630, 0, -358, 264, 72
13585, -875, 311, -356, 70, -420, -140, -345, 270, 60
13586, -884, 307, -355, -70, 770, -70, -345, 271, 67
13587, -885, 307, -360, 70, -280, -140, -349, 265, 61
13588, -886, 305, -353, 0, 700, 0, -342, 270, 64
13589, -880, 308, -350, 0, 560, 0, -357, 264, 51
13590, -883, 310, -362, 140, -210, -140, -343, 262, 67
13591, -883, 305, -351, -70, 560, 0, -343, 273, 61
13592, -886, 310, -363, 0, -70, -140, -345, 264, 61
13593, -879, 306, -349, 0, 280, -70, -352, 279, 64
13594, -879, 306, -351, 0, 280, -70, -349, 268, 73
13595, -887, 309, -363, 0, 140, -70, -351, 265, 66
13596, -882, 306, -351, -70, 210, -70, -349, 270, 72
13597, -884, 310, -362, 0, 70, -70, -348, 270, 60
13598, -885, 309, -362, 0, 210, -70, -345, 264, 63
13599, -881, 306, -352, 0, 140, -70, -354, 265, 61
13600, -887, 309, -361, -70, 350, 0, -348, 274, 66
13601, -879, 307, -352, 0, -70, -70, -349, 271, 72
13602, -884, 309, -360, -70, 350, 0, -334, 268, 66
13603, -885, 308, -359, -70, 420, -70, -343, 267, 63
13604, -880, 308, -354, 0, -70, -70, -357, 274, 69
13605, -884, 308, -357, -70, 420, -70, -352, 274, 75
13606, -880, 309, -355, 0, 0, -70, -345, 264, 75
13607, -884, 308, -357, 0, 420, 0, -345, 264, 81
13608, -884, 307, -355, 0, 420, 0, -346, 265, 64
13609, -882, 308, -357, 0, -70, -140, -352, 265, 73
13610, -883, 308, -355, -70, 350, -70, -345, 265, 66
13611, -882, 309, -358, 0, -70, -70, -343, 273, 63
13612, -882, 310, -359, 0, -70, -140, -345, 259, 67
13613, -882, 307, -354, 0, 280, -70, -351, 267, 67
13614, -883, 309, -359, 0, 0, -70, -345, 268, 63
13615, -882, 307, -354, 0, 350, -70, -339, 265, 61
13616, -884, 309, -360, 0, 70, -70, -346, 258, 66
13617, -882, 310, -360, 70, 0, -70, -348, 271, 70
13618, -880, 307, -354, 70, 280, -70, -346, 268, 64
13619, -884, 309, -359, 0, 140, -70, -345, 267, 64
13620, -883, 307, -354, -70, 280, -70, -342, 267, 67
13621, -885, 308, -360, 0, 140, -70, -345, 267, 61
13622, -883, 309, -358, 0, 280, -70, -349, 270, 69
13623, -882, 308, -355, 0, 70, -70, -349, 264, 63
13624, -884, 309, -359, 0, 210, -140, -351, 270, 69
13625, -882, 307, -354, 0, 70, -70, -345, 258, 64
13626, -881, 308, -355, -70, 70, -70, -340, 270, 73
13627, -884, 308, -357, -70, 210, 0, -340, 267, 64
13628, -882, 308, -356, 0, 70, -70, -343, 268, 70
13629, -884, 309, -357, -70, 210, -70, -346, 264, 64
13630, -881, 308, -355, -70, 70, -70, -349, 276, 78
13631, -881, 308, -356, 0, 70, -140, -358, 270, 66
13632, -884, 308, -357, 0, 210, -70, -348, 267, 70
13633, -882, 308, -357, 70, 0, -70, -339, 264, 64
13634, -883, 309, -356, 0, 280, -70, -348, 270, 66
13635, -883, 309, -356, 0, 280, -70, -348, 273, 69
13636, -883, 309, -357, -70, 70, -70, -349, 271, 67
13637, -883, 308, -357, 0, 210, -70, -345, 270, 70
13638, -882, 308, -357, 0, 70, -70, -351, 259, 64
13639, -882, 308, -355, 0, 210, -70, -346, 264, 58
13640, -883, 308, -356, 0, 280, -70, -352, 270, 66
13641, -882, 309, -358, 0, 210, -70, -345, 268, 67
13642, -882, 309, -355, 0, 210, -70, -349, 264, 66
13643, -883, 309, -357, 0, 140, -70, -348, 271, 60
13644, -883, 309, -355, 0, 280, -70, -342, 264, 70
13645, -882, 308, -357, 0, 210, -70, -343, 268, 72
13646, -883, 308, -357, 0, 210, -70, -348, 279, 72
13647, -882, 308, -356, 0, 210, -70, -349, 267, 73
13648, -884, 308, -357, 0, 140, -70, -351, 268, 60
13649, -883, 308, -356, 0, 140, -70, -342, 267, 52
13650, -882, 309, -357, -70, 140, -70, -351, 265, 69
13651, -883, 308, -359, 70, 210, -70, -342, 267, 61
13652, -883, 308, -356, -70, 210, -70, -352, 274, 67
13653, -884, 308, -357, -70, 140, -70, -348, 268, 66
13654, -883, 308, -356, 0, 140, -70, -357, 264, 75
13655, -882, 308, -356, 0, 140, -70, -349, 265, 61
13656, -883, 308, -356, 0, 210, -70, -348, 271, 67
13657, -883, 308, -356, 70, 70, -70, -349, 262, 64
13658, -883, 308, -356, 0, 210, -70, -346, 271, 66
13659, -883, 308, -357, 0, 210, -70, -349, 262, 75
13660, -882, 308, -356, 70, 70, -70, -346, 264, 72
13661, -882, 309, -356, 70, 280, -70, -346, 271, 63
13662, -882, 308, -357, 70, 140, -70, -345, 274, 70
13663, -883, 308, -357, 0, 210, -140, -349, 270, 72
13664, -883, 308, -357, 0, 210, -70, -348, 274, 73
13665, -882, 308, -356, 0, 140, -70, -334, 264, 60
13666, -883, 308, -356, 0, 210, -70, -351, 273, 73
13667, -882, 308, -356, 0, 140, -140, -354, 264, 58
13668, -883, 309, -357, 0, 70, -70, -349, 274, 69
13669, -882, 308, -356, -70, 140, -70, -342, 271, 67
13670, -883, 309, -356, 0, 140, -140, -349, 264, 64
13671, -883, 307, -357, -70, 210, -70, -348, 271, 63
13672, -883, 308, -357, 70, 210, -70, -352, 270, 72
13673, -883, 308, -357, 0, 140, -70, -343, 270, 69
13674, -883, 308, -356, 70, 210, -70, -348, 264, 75
13675, -883, 308, -358, 0, 210, -70, -354, 265, 75
13676, -882, 308, -356, 0, 70, -70, -345, 267, 72
13677, -882, 308, -357, -70, 140, -70, -345, 267, 61
13678, -883, 308, -357, 0, 140, -70, -336, 262, 69
13679, -882, 308, -356, 0, 140, -70, -351, 265, 64
13680, -883, 308, -356, 0, 210, -70, -348, 273, 66
13681, -882, 308, -356, 0, 140, -70, -345, 270, 67
13682, -882, 309, -356, -70, 140, -70, -348, 264, 67
13683, -882, 309, -356, 0, 140, -70, -348, 265, 64
13684, -882, 308, -357, -70, 210, -140, -349, 268, 70
13685, -884, 309, -356, 0, 210, -70, -345, 271, 72
13686, -883, 308, -356, 0, 140, -70, -345, 268, 70
13687, -882, 309, -357, 0, 140, -70, -349, 271, 61
13688, -883, 309, -356, 0, 210, -70, -334, 265, 63
13689, -882, 309, -357, 70, 140, -70, -348, 270, 69
13690, -882, 309, -357, 0, 140, -70, -351, 265, 76
13691, -883, 308, -358, 70, 210, -70, -351, 274, 66
13692, -882, 308, -355, 70, 70, -70, -354, 265, 69
13693, -882, 309, -357, 0, 140, -70, -349, 277, 67
13694, -882, 309, -356, 0, 140, -70, -351, 270, 66
13695, -883, 308, -356, 0, 140, -70, -346, 267, 69
13696, -882, 308, -357, 0, 210, -70, -339, 271, 58
13697, -882, 308, -357, 70, 210, -70, -351, 264, 63
13698, -882, 307, -357, 0, 140, -70, -346, 261, 66
13699, -883, 308, -356, 70, 140, -70, -355, 270, 63
13700, -883, 307, -357, 0, 140, -70, -351, 258, 69
13701, -882, 308, -356, 0, 140, -70, -355, 268, 67
13702, -883, 309, -356, 0, 210, -70, -345, 273, 61
13703, -883, 308, -357, 0, 140, -70, -349, 264, 69
13704, -883, 308, -356, 70, 210, -70, -349, 273, 73
13705, -882, 308, -356, 0, 210, -70, -345, 267, 79
13706, -883, 308, -356, 0, 210, -70, -346, 264, 75
13707, -883, 308, -356, 0, 140, -70, -349, 274, 67
13708, -882, 308, -356, -70, 210, -70, -349, 261, 67
13709, -882, 308, -357, 70, 210, -70, -349, 268, 67
13710, -882, 308, -356, 0, 280, -70, -352, 270, 63
13711, -883, 309, -356, 70, 210, -70, -345, 271, 69
13712, -883, 308, -356, 0, 140, -70, -349, 268, 69
13713, -882, 308, -357, 0, 140, -140, -343, 265, 61
13714, -882, 308, -356, 0, 140, -70, -346, 268, 69
13715, -882, 307, -357, 0, 140, -70, -355, 277, 73
13716, -883, 309, -356, 70, 210, -70, -346, 261, 72
13717, -882, 308, -358, -70, 140, -70, -346, 265, 73
13718, -882, 308, -357, 0, 210, -70, -346, 267, 73
13719, -883, 307, -357, 0, 140, -70, -352, 270, 70
13720, -882, 309, -357, -70, 140, -70, -349, 274, 66
13721, -882, 308, -356, 0, 140, -70, -348, 267, 81
13722, -883, 308, -357, 0, 210, -70, -349, 271, 69
13723, -883, 308, -357, -70, 210, -70, -355, 268, 64
13724, -882, 309, -357, 0, 140, -70, -340, 261, 64
13725, -882, 308, -356, 70, 70, -70, -340, 265, 66
13726, -883, 308, -356, 0, 140, -70, -355, 267, 70
13727, -883, 308, -357, 0, 140, -70, -351, 277, 73
13728, -884, 308, -357, 0, 140, -70, -352, 261, 64
13729, -882, 309, -356, 0, 140, -70, -346, 264, 64
13730, -882, 308, -356, 0, 210, -70, -352, 270, 78
13731, -882, 308, -356, 0, 210, -70, -342, 268, 70
13732, -883, 308, -357, -70, 210, -70, -346, 268, 69
13733, -882, 308, -356, 0, 140, -70, -352, 270, 67
13734, -883, 308, -357, -70, 210, -70, -354, 271, 70
13735, -883, 308, -356, 0, 210, -70, -351, 270, 67
13736, -882, 308, -357, 70, 70, -70, -348, 282, 67
13737, -882, 308, -357, 0, 140, -70, -343, 276, 66
13738, -882, 308, -357, 0, 210, -70, -346, 262, 64
13739, -881, 308, -355, 0, 210, -140, -343, 261, 57
13740, -883, 309, -357, 70, 140, -140, -348, 273, 76
13741, -882, 308, -356, 70, 210, -70, -348, 259, 64
13742, -883, 308, -356, -70, 210, -70, -354, 273, 66
13743, -883, 308, -357, 0, 210, -70, -351, 270, 70
13744, -882, 309, -356, -70, 210, -70, -348, 270, 67
13745, -882, 308, -356, -70, 140, -70, -348, 271, 69
13746, -882, 309, -357, -70, 140, -70, -348, 268, 73
13747, -883, 308, -357, 0, 140, -70, -345, 261, 63
13748, -883, 309, -356, 0, 210, -70, -349, 273, 69
13749, -882, 308, -356, 70, 140, -70, -349, 270, 63
13750, -883, 308, -356, 0, 210, -70, -349, 274, 61
13751, -883, 309, -357, 0, 210, -70, -349, 271, 63
13752, -883, 308, -356, 70, 210, -70, -349, 264, 67
13753, -883, 308, -357, 0, 140, -70, -345, 267, 66
13754, -883, 309, -356, -70, 210, -70, -351, 268, 67
13755, -884, 309, -357, 0, 140, -70, -346, 274, 63
13756, -883, 308, -356, 0, 140, -70, -348, 273, 67
13757, -883, 308, -357, 0, 0, -70, -342, 253, 64
13758, -883, 309, -357, 0, 280, -70, -345, 267, 69
13759, -882, 308, -356, 0, 210, -70, -349, 279, 66
13760, -882, 308, -356, 0, 210, -70, -351, 279, 66
13761, -882, 308, -356, 70, 140, -70, -340, 268, 72
13762, -883, 309, -356, 0, 210, -70, -343, 265, 67
13763, -883, 308, -357, 0, 210, -70, -343, 264, 69
13764, -883, 308, -358, 70, 210, -70, -352, 273, 69
13765, -883, 309, -356, 0, 140, -70, -352, 265, 70
13766, -883, 308, -356, 70, 140, -70, -346, 276, 67
13767, -882, 307, -358, 0, 210, -70, -337, 256, 67
13768, -883, 308, -357, -70, 210, 0, -343, 265, 69
13769, -882, 308, -357, 0, 210, -70, -342, 262, 67
13770, -882, 309, -357, 0, 210, -70, -351, 273, 64
13771, -882, 308, -356, 70, 210, -70, -343, 265, 61
13772, -882, 308, -357, 0, 140, -70, -361, 265, 70
13773, -882, 308, -357, 0, 140, -70, -346, 259, 63
13774, -883, 309, -356, 0, 140, -70, -349, 279, 61
13775, -883, 309, -357, 0, 140, -70, -348, 270, 66
13776, -883, 308, -357, 0, 140, -140, -349, 268, 70
13777, -882, 308, -357, -70, 140, -70, -349, 274, 63
13778, -882, 308, -356, 0, 140, -70, -354, 270, 57
13779, -883, 308, -356, -70, 210, -70, -354, 268, 61
13780, -883, 309, -357, 0, 210, -70, -340, 265, 72
13781, -882, 308, -357, 0, 140, -70, -348, 271, 66
13782, -882, 308, -356, 0, 140, -70, -351, 259, 73
13783, -882, 308, -356, 70, 140, -70, -352, 270, 69
13784, -882, 308, -357, 0, 140, -70, -348, 271, 48
13785, -883, 308, -358, -70, 210, -70, -340, 270, 64
13786, -883, 308, -356, -70, 210, -70, -351, 268, 72
13787, -883, 308, -356, -70, 140, -70, -342, 267, 60
13788, -883, 308, -357, 0, 140, -70, -348, 265, 67
13789, -883, 308, -357, 0, 210, -70, -348, 270, 64
13790, -883, 308, -357, 0, 140, -70, -345, 273, 72
13791, -882, 309, -356, 0, 140, -70, -352, 268, 73
13792, -882, 309, -356, 0, 140, -70, -345, 264, 67
13793, -882, 308, -357, 0, 140, -70, -360, 270, 66
13794, -883, 309, -357, 70, 70, -70, -333, 264, 58
13795, -882, 308, -357, -70, 210, -70, -346, 274, 60
13796, -883, 308, -356, 0, 140, -70, -349, 265, 69
13797, -883, 308, -357, 0, 210, -70, -355, 267, 70
13798, -882, 308, -357, 0, 140, -70, -349, 268, 67
13799, -882, 308, -356, 0, 210, -70, -348, 268, 67
13800, -882, 308, -357, 0, 140, -70, -348, 268, 79
13801, -883, 308, -356, 0, 210, -70, -343, 271, 79
13802, -883, 308, -357, 0, 140, -70, -348, 271, 64
13803, -883, 308, -356, -70, 140, -70, -351, 270, 72
13804, -882, 309, -356, 70, 140, -70, -340, 264, 58
13805, -882, 309, -357, 0, 210, -70, -337, 271, 61
13806, -882, 308, -356, 70, 140, -70, -357, 270, 72
13807, -882, 308, -356, 0, 140, -70, -343, 261, 66
13808, -882, 308, -356, 0, 140, -140, -340, 274, 72
13809, -883, 308, -357, 0, 210, -70, -343, 259, 66
13810, -882, 308, -356, 0, 140, -70, -352, 268, 64
13811, -883, 308, -358, 0, 210, -70, -351, 262, 70
13812, -883, 308, -357, -70, 140, -70, -352, 274, 69
13813, -883, 308, -357, -70, 140, 0, -355, 273, 79
13814, -882, 309, -357, 0, 140, -70, -334, 264, 60
13815, -883, 308, -356, 0, 140, -70, -351, 268, 69
13816, -882, 309, -357, 0, 140, -70, -346, 270, 63
13817, -883, 308, -357, 0, 140, -70, -351, 270, 63
13818, -883, 309, -357, 0, 210, -70, -346, 270, 67
13819, -882, 308, -357, 0, 140, -140, -345, 262, 72
13820, -883, 309, -357, 0, 140, -70, -345, 270, 73
13821, -883, 308, -356, 0, 140, -70, -342, 273, 67
13822, -882, 308, -357, 0, 140, -140, -351, 273, 67
13823, -883, 308, -356, -70, 210, -70, -345, 264, 64
13824, -883, 308, -356, 0, 140, -70, -351, 271, 66
13825, -883, 308, -357, -70, 140, -70, -352, 262, 72
13826, -882, 308, -357, 0, 350, -70, -343, 265, 69
13827, -882, 307, -358, 0, 210, -70, -348, 264, 61
13828, -883, 309, -356, 0, 140, 0, -355, 268, 70
13829, -882, 309, -357, 0, 140, -70, -354, 264, 69
13830, -883, 308, -357, 0, 140, -70, -351, 264, 64
13831, -882, 308, -357, 0, 140, -70, -351, 274, 61
13832, -883, 308, -356, 0, 140, -140, -349, 262, 66
13833, -883, 308, -356, 0, 210, -70, -342, 262, 66
13834, -882, 309, -356, 70, 210, -70, -345, 262, 60
13835, -882, 308, -357, 0, 210, -70, -349, 265, 63
13836, -883, 309, -357, 0, 140, -70, -340, 264, 66
13837, -882, 308, -357, -70, 140, -70, -352, 261, 63
13838, -882, 308, -356, 0, 210, -70, -349, 264, 69
13839, -882, 308, -357, 70, 70, -70, -345, 273, 64
13840, -884, 308, -357, 0, 210, -70, -355, 270, 67
13841, -883, 309, -357, 0, 70, -70, -342, 265, 57
13842, -882, 308, -357, 0, 140, -70, -337, 265, 64
13843, -883, 309, -356, 0, 140, -140, -346, 262, 66
13844, -883, 308, -357, 0, 210, -70, -349, 270, 76
13845, -882, 308, -357, -70, 210, -70, -349, 267, 70
13846, -882, 308, -356, 0, 210, -70, -342, 268, 75
13847, -882, 308, -358, 0, 210, -70, -339, 264, 63
13848, -884, 309, -357, -70, 140, -70, -340, 273, 69
13849, -883, 309, -357, -70, 210, -70, -346, 270, 67
13850, -883, 308, -356, 0, 210, -70, -345, 267, 61
13851, -883, 308, -356, 0, 210, -70, -349, 270, 64
13852, -883, 309, -357, 0, 70, -70, -345, 265, 73
13853, -882, 308, -355, 0, 140, -70, -342, 270, 69
13854, -883, 307, -356, 0, 210, -70, -352, 267, 73
13855, -883, 309, -356, -70, 140, -70, -354, 273, 63
13856, -882, 308, -356, 0, 70, -70, -345, 273, 70
13857, -883, 309, -357, 0, 210, -70, -343, 259, 69
13858, -883, 308, -357, 0, 210, -70, -354, 273, 64
13859, -883, 308, -357, 0, 140, -70, -345, 259, 63
13860, -882, 308, -356, 70, 140, -70, -349, 271, 64
13861, -882, 308, -356, 0, 210, -70, -346, 268, 69
13862, -882, 309, -356, 70, 210, -70, -354, 270, 78
13863, -882, 308, -356, 0, 210, -70, -349, 267, 64
13864, -882, 309, -357, 0, 140, -70, -343, 274, 67
13865, -882, 308, -357, 0, 140, -70, -346, 273, 70
13866, -882, 308, -356, 0, 140, -70, -348, 265, 63
13867, -882, 309, -357, 0, 210, -70, -354, 270, 70
13868, -882, 309, -357, 0, 140, -70, -343, 265, 76
13869, -883, 308, -355, 0, 140, -70, -351, 277, 70
13870, -882, 308, -357, 70, 210, -70, -349, 265, 75
13871, -883, 308, -357, 0, 210, -70, -349, 267, 66
13872, -883, 308, -357, 0, 210, -70, -339, 261, 57
13873, -883, 309, -357, -70, 140, 0, -340, 268, 67
13874, -883, 308, -356, 0, 140, -70, -357, 271, 64
13875, -883, 308, -356, 0, 70, -70, -346, 258, 57
13876, -883, 308, -356, 0, 210, -70, -346, 265, 69
13877, -882, 308, -356, 0, 140, -70, -343, 262, 67
13878, -882, 308, -357, 0, 140, -70, -348, 267, 72
13879, -883, 308, -357, -70, 210, -70, -340, 274, 64
13880, -883, 308, -357, 0, 140, -140, -346, 271, 70
13881, -882, 309, -356, 0, 140, -70, -346, 273, 64
13882, -882, 308, -357, 0, 140, -70, -345, 268, 55
13883, -883, 308, -357, 0, 140, -70, -355, 273, 57
13884, -882, 308, -357, 0, 140, -70, -345, 274, 72
13885, -883, 308, -357, 0, 210, -70, -343, 268, 69
13886, -883, 309, -357, -70, 210, -70, -354, 267, 70
13887, -882, 308, -355, -70, 140, -70, -348, 267, 67
13888, -883, 308, -356, -70, 140, -70, -345, 264, 57
13889, -882, 307, -357, 0, 140, -70, -346, 273, 72
13890, -883, 309, -357, -70, 140, -70, -348, 264, 69
13891, -882, 309, -357, 0, 210, -70, -342, 267, 60
13892, -882, 308, -356, 70, 140, -70, -345, 270, 55
13893, -883, 308, -357, 0, 210, -70, -352, 262, 61
13894, -883, 308, -357, -70, 140, -70, -349, 256, 72
13895, -883, 308, -357, 70, 140, 0, -352, 265, 60
13896, -882, 308, -356, 0, 210, -70, -345, 270, 63
13897, -883, 308, -357, 0, 140, -70, -345, 267, 69
13898, -882, 308, -357, 70, 210, -70, -346, 268, 69
13899, -883, 308, -357, 0, 210, -70, -345, 268, 67
13900, -883, 308, -356, 0, 70, -70, -354, 265, 66
13901, -882, 309, -357, 0, 210, 0, -343, 268, 67
13902, -882, 308, -356, 0, 210, -70, -354, 264, 63
13903, -883, 308, -356, 0, 140, -70, -345, 268, 67
13904, -882, 308, -357, 0, 210, -70, -345, 261, 64
13905, -883, 309, -357, 0, 210, -70, -348, 270, 61
13906, -882, 308, -357, -70, 140, -70, -349, 264, 64
13907, -883, 308, -356, 0, 140, -70, -348, 268, 72
13908, -882, 309, -357, 0, 140, -70, -354, 267, 66
13909, -882, 308, -356, -70, 140, -70, -345, 259, 69
13910, -882, 308, -357, 0, 140, -70, -342, 268, 69
13911, -883, 308, -357, 0, 210, -70, -349, 273, 63
13912, -882, 308, -357, 0, 210, -70, -349, 262, 75
13913, -882, 308, -356, -70, 140, -140, -354, 267, 60
13914, -883, 308, -356, 70, 210, -70, -348, 267, 63
13915, -883, 308, -356, 0, 70, -70, -358, 262, 64
13916, -882, 308, -357, 0, 70, -70, -351, 276, 76
13917, -882, 309, -356, 0, 140, 0, -346, 265, 63
13918, -882, 308, -356, -70, 140, -70, -349, 271, 60
13919, -883, 308, -356, 0, 210, -70, -355, 267, 75
13920, -883, 308, -356, 0, 140, -70, -348, 276, 67
13921, -882, 308, -357, -70, 210, -70, -345, 267, 67
13922, -883, 309, -356, -70, 140, -70, -345, 273, 70
13923, -883, 308, -356, 0, 140, -70, -346, 265, 70
13924, -883, 309, -357, 70, 140, -70, -351, 259, 72
13925, -882, 308, -357, 0, 140, -70, -355, 259, 63
13926, -882, 308, -358, 0, 280, -70, -351, 270, 75
13927, -882, 308, -357, 0, 140, -70, -349, 273, 72
13928, -883, 308, -357, 70, 140, -70, -346, 268, 66
13929, -883, 309, -356, 0, 140, -70, -348, 268, 78
13930, -883, 308, -356, 70, 140, 0, -349, 271, 70
13931, -883, 308, -357, 0, 140, -70, -349, 262, 78
13932, -882, 308, -356, 0, 140, -70, -345, 268, 66
13933, -883, 308, -355, 70, 210, -70, -339, 268, 70
13934, -882, 309, -357, 0, 210, -70, -349, 273, 64
13935, -883, 309, -356, -70, 210, -70, -340, 271, 67
13936, -883, 309, -357, 0, 70, -70, -349, 277, 63
13937, -883, 309, -357, 70, 140, -70, -339, 271, 73
13938, -882, 309, -357, 0, 140, -70, -357, 267, 63
13939, -882, 309, -358, 0, 210, -70, -349, 264, 64
13940, -883, 308, -357, 0, 140, -70, -352, 262, 67
13941, -883, 308, -357, 0, 140, -70, -349, 270, 64
13942, -882, 308, -357, -70, 140, -70, -345, 271, 67
13943, -883, 308, -356, 70, 210, -70, -354, 267, 70
13944, -882, 308, -356, 0, 210, -70, -346, 264, 72
13945, -883, 308, -357, -70, 210, -140, -346, 268, 60
13946, -883, 308, -357, 0, 140, -70, -348, 267, 67
13947, -884, 309, -357, 0, 210, -70, -348, 271, 72
13948, -883, 308, -357, 0, 210, -70, -349, 268, 69
13949, -882, 309, -357, 0, 210, -70, -343, 264, 72
13950, -883, 308, -357, 0, 210, 0, -355, 268, 61
13951, -883, 309, -357, 0, 210, -70, -346, 268, 64
13952, -883, 308, -357, 0, 140, -70, -343, 265, 67
13953, -882, 308, -356, 0, 140, -70, -346, 261, 67
13954, -882, 308, -357, 0, 140, -70, -349, 268, 66
13955, -882, 308, -358, 0, 140, -70, -339, 261, 66
13956, -882, 308, -356, 0, 140, -70, -348, 273, 69
13957, -882, 308, -357, -70, 210, -70, -345, 265, 66
13958, -882, 308, -356, 0, 140, -70, -346, 273, 64
13959, -882, 308, -357, 0, 210, -70, -345, 268, 60
13960, -883, 308, -356, 0, 140, -70, -346, 265, 63
13961, -882, 308, -356, 0, 140, -70, -345, 262, 70
13962, -882, 308, -356, 0, 140, -70, -340, 264, 70
13963, -882, 308, -355, 70, 210, -70, -349, 270, 64
13964, -883, 308, -356, 0, 210, -70, -346, 265, 69
13965, -883, 308, -357, 70, 210, -70, -352, 274, 75
13966, -882, 308, -357, 0, 210, -70, -343, 262, 72
13967, -883, 309, -356, 0, 210, -70, -354, 265, 73
13968, -883, 308, -357, 0, 140, -70, -349, 264, 66
13969, -882, 307, -356, 0, 140, -70, -349, 265, 66
13970, -883, 308, -356, 70, 140, -70, -346, 267, 60
13971, -883, 308, -356, -70, 210, 0, -343, 270, 64
13972, -883, 309, -358, 140, 140, -70, -349, 261, 72
13973, -883, 308, -357, 0, 210, 0, -343, 265, 70
13974, -883, 308, -356, 0, 140, -70, -349, 277, 67
13975, -883, 307, -357, 0, 210, -70, -345, 265, 61
13976, -883, 308, -357, 0, 140, -70, -339, 265, 63
13977, -882, 308, -356, 0, 140, -140, -349, 262, 73
13978, -882, 308, -356, 0, 140, -70, -348, 264, 66
13979, -883, 308, -356, 0, 210, -70, -342, 274, 66
13980, -883, 308, -356, 0, 140, -70, -337, 270, 60
13981, -882, 308, -357, 0, 280, -70, -345, 273, 70
13982, -882, 308, -356, 0, 140, -70, -340, 271, 64
13983, -883, 308, -355, -70, 140, -70, -348, 267, 66
13984, -882, 308, -357, 0, 210, -70, -349, 264, 73
13985, -883, 308, -357, 0, 210, -140, -343, 268, 66
13986, -883, 308, -356, 0, 140, -70, -345, 259, 73
13987, -883, 308, -357, 0, 140, -70, -351, 265, 69
13988, -882, 308, -356, 0, 210, -70, -357, 267, 70
13989, -882, 308, -357, 0, 140, -70, -352, 271, 67
13990, -883, 308, -356, 70, 210, -70, -346, 271, 58
13991, -883, 309, -357, 0, 140, -70, -354, 267, 67
13992, -882, 308, -357, -70, 140, -70, -355, 259, 79
13993, -883, 308, -357, 0, 140, -70, -354, 267, 72
13994, -883, 308, -357, 0, 140, -70, -354, 268, 66
13995, -882, 309, -357, 0, 140, -70, -358, 267, 67
13996, -882, 308, -356, 0, 140, -70, -351, 265, 76
13997, -883, 308, -357, 0, 210, -70, -346, 264, 66
13998, -882, 309, -356, 0, 140, -70, -351, 267, 60
13999, -882, 308, -356, -70, 210, -140, -349, 270, 70
14000, -883, 309, -357, 0, 210, -70, -342, 270, 75
14001, -883, 307, -357, -70, 140, 0, -348, 274, 75
14002, -882, 308, -356, 0, 140, -70, -351, 267, 73
14003, -882, 307, -357, 70, 140, -70, -349, 268, 69
14004, -882, 308, -357, 0, 210, -140, -349, 264, 67
14005, -883, 308, -357, 0, 140, -70, -346, 258, 72
14006, -882, 308, -356, 0, 210, -70, -351, 267, 61
14007, -883, 309, -357, 0, 140, -70, -354, 274, 70
14008, -883, 309, -357, -70, 140, -70, -352, 268, 61
14009, -882, 308, -356, 70, 140, -70, -346, 264, 63
14010, -882, 308, -356, -70, 280, -70, -346, 270, 61
14011, -882, 308, -356, 0, 140, -70, -348, 267, 70
14012, -883, 308, -357, 0, 140, -70, -346, 268, 60
14013, -883, 307, -357, 0, 210, -70, -351, 264, 69
14014, -882, 308, -356, 0, 210, -70, -345, 264, 70
14015, -882, 308, -357, 0, 140, -70, -349, 273, 63
14016, -882, 308, -357, 0, 140, -70, -357, 262, 66
14017, -883, 308, -357, 70, 140, -70, -349, 265, 69
14018, -882, 308, -357, 0, 140, -70, -345, 268, 73
14019, -883, 308, -357, 70, 70, -70, -345, 267, 60
14020, -882, 308, -357, 0, 140, -70, -354, 271, 76
14021, -883, 308, -356, 0, 210, -70, -354, 268, 63
14022, -882, 307, -356, 0, 140, -70, -340, 277, 76
14023, -883, 308, -356, 0, 70, -70, -345, 267, 63
14024, -883, 308, -356, 0, 210, -70, -342, 270, 69
14025, -882, 309, -357, 0, 140, -70, -342, 262, 63
14026, -882, 309, -356, -70, 140, -70, -345, 271, 72
14027, -884, 309, -357, 0, 210, -70, -333, 268, 67
14028, -882, 308, -356, 0, 140, -70, -343, 268, 69
14029, -883, 308, -357, 0, 280, -70, -349, 271, 66
14030, -883, 308, -357, 0, 70, -70, -349, 265, 63
14031, -882, 308, -357, 0, 210, -70, -340, 264, 60
14032, -882, 308, -357, 0, 210, -70, -342, 265, 67
14033, -883, 309, -357, 0, 210, -70, -352, 268, 67
14034, -882, 308, -357, 70, 140, -70, -343, 262, 75
14035, -883, 308, -356, -70, 210, -70, -337, 262, 66
14036, -882, 308, -357, -70, 140, -140, -348, 267, 61
14037, -883, 308, -356, 0, 140, -70, -354, 265, 63
14038, -882, 309, -357, 0, 140, -70, -355, 268, 67
14039, -882, 309, -356, 0, 140, -70, -342, 274, 72
14040, -882, 308, -356, -70, 140, -70, -348, 261, 69
14041, -882, 308, -357, -70, 140, -70, -348, 270, 72
14042, -881, 308, -356, 0, 140, -70, -343, 271, 70
14043, -882, 309, -357, 0, 210, -70, -348, 265, 66
14044, -882, 308, -357, 0, 140, -70, -348, 270, 66
14045, -882, 308, -356, 0, 140, -70, -349, 255, 60
14046, -883, 308, -355, 0, 140, -70, -357, 271, 67
14047, -882, 308, -356, -70, 140, -70, -349, 268, 69
14048, -882, 308, -356, 0, 140, -70, -352, 262, 69
14049, -882, 309, -356, 0, 210, -70, -351, 271, 69
14050, -882, 308, -357, 0, 210, -70, -351, 271, 72
14051, -882, 309, -357, 0, 210, -70, -346, 264, 64
14052, -882, 308, -357, 0, 210, -70, -348, 262, 72
14053, -883, 309, -357, 70, 140, -70, -346, 262, 69
14054, -882, 309, -356, 0, 140, -70, -348, 270, 75
14055, -883, 309, -358, 0, 140, -70, -346, 271, 73
14056, -882, 308, -357, 0, 140, -70, -346, 274, 72
14057, -883, 308, -357, 0, 210, -70, -345, 259, 60
14058, -883, 308, -356, 0, 140, -140, -351, 267, 64
14059, -883, 308, -356, 0, 210, -70, -346, 268, 69
14060, -882, 308, -356, 0, 140, -70, -349, 270, 64
14061, -883, 309, -357, 70, 140, -140, -337, 270, 67
14062, -883, 309, -357, -70, 210, -70, -348, 276, 64
14063, -883, 308, -356, 70, 210, -70, -358, 267, 78
14064, -882, 308, -357, 0, 140, -70, -345, 271, 69
14065, -883, 308, -356, 70, 140, -70, -352, 268, 66
14066, -882, 307, -356, 0, 70, -70, -354, 273, 66
14067, -882, 308, -356, 0, 140, -70, -352, 271, 64
14068, -882, 308, -356, 0, 140, -70, -351, 270, 64
14069, -882, 309, -357, 0, 210, -70, -348, 267, 66
14070, -883, 309, -357, 0, 140, -70, -349, 273, 73
14071, -882, 309, -356, -70, 210, -70, -351, 267, 61
14072, -882, 308, -357, 0, 140, -70, -342, 264, 57
14073, -882, 308, -357, 0, 210, -70, -351, 271, 57
14074, -883, 308, -356, 0, 140, 0, -340, 276, 58
14075, -882, 308, -357, -70, 140, -70, -348, 273, 55
14076, -883, 309, -357, 0, 140, -140, -348, 267, 72
14077, -883, 308, -357, 0, 140, -70, -343, 268, 64
14078, -881, 309, -356, 0, 210, -70, -346, 271, 57
14079, -883, 308, -357, 0, 210, -70, -348, 276, 63
14080, -883, 308, -357, -70, 210, -70, -351, 262, 69
14081, -882, 309, -356, 0, 140, -70, -348, 276, 57
14082, -882, 308, -357, 0, 140, -70, -345, 265, 69
14083, -882, 308, -357, -70, 140, -70, -351, 273, 69
14084, -881, 308, -356, 0, 210, -70, -349, 270, 69
14085, -883, 308, -356, 0, 140, -70, -354, 271, 66
14086, -882, 308, -358, 0, 140, -70, -346, 274, 70
14087, -882, 308, -356, 0, 140, -70, -345, 267, 63
14088, -882, 309, -357, 0, 210, -70, -343, 270, 73
14089, -883, 308, -358, -70, 140, -70, -345, 262, 63
14090, -882, 308, -355, 0, 210, 0, -346, 270, 70
14091, -882, 308, -357, 0, 210, 0, -354, 265, 70
14092, -882, 308, -357, 0, 140, -70, -354, 267, 63
14093, -883, 308, -357, 70, 140, -70, -352, 270, 72
14094, -883, 308, -356, 70, 140, -70, -343, 268, 67
14095, -883, 309, -357, 0, 140, -70, -345, 273, 66
14096, -883, 308, -357, 70, 210, -70, -348, 258, 61
14097, -883, 308, -357, 0, 210, -70, -351, 273, 69
14098, -883, 308, -356, 0, 70, -70, -340, 265, 61
14099, -882, 308, -356, 0, 140, 0, -345, 267, 72
14100, -883, 308, -356, -70, 140, -70, -345, 265, 70
14101, -883, 308, -356, 0, 70, 0, -343, 277, 70
14102, -882, 309, -357, 0, 140, -70, -349, 268, 64
14103, -882, 308, -356, 0, 210, -70, -343, 268, 72
14104, -883, 308, -357, 0, 70, -70, -337, 267, 70
14105, -882, 309, -357, 0, 210, -70, -346, 267, 73
14106, -883, 308, -356, 0, 210, -70, -343, 265, 67
14107, -883, 308, -357, 0, 140, -140, -343, 265, 57
14108, -882, 308, -358, 70, 140, -70, -346, 262, 67
14109, -882, 308, -357, -70, 140, -70, -351, 274, 64
14110, -883, 309, -357, 0, 140, -70, -340, 262, 64
14111, -882, 308, -357, 0, 210, -70, -351, 271, 67
14112, -882, 308, -357, 0, 140, -70, -346, 270, 66
14113, -883, 308, -357, 0, 140, -70, -342, 268, 64
14114, -881, 308, -357, -70, 70, -70, -346, 267, 76
14115, -884, 309, -357, 70, 280, -70, -346, 271, 66
14116, -883, 309, -357, 70, 140, -70, -355, 277, 72
14117, -882, 309, -356, 70, 140, -70, -357, 262, 67
14118, -881, 309, -356, 0, 140, -70, -345, 271, 75
14119, -883, 308, -356, 0, 140, -140, -348, 268, 73
14120, -883, 308, -357, -70, 210, -70, -351, 285, 72
14121, -881, 309, -356, 0, 140, -70, -334, 264, 73
14122, -881, 309, -357, 0, 140, -70, -355, 270, 69
14123, -882, 309, -356, 0, 210, -70, -343, 261, 70
14124, -882, 308, -356, 0, 140, -140, -339, 267, 64
14125, -882, 308, -356, -70, 140, -70, -346, 271, 66
14126, -882, 308, -356, 0, 140, -70, -340, 270, 64
14127, -883, 308, -357, 0, 210, -70, -351, 268, 66
14128, -882, 308, -357, -70, 210, -140, -342, 265, 70
14129, -882, 308, -357, -70, 140, -70, -345, 270, 73
14130, -882, 309, -357, 0, 140, -70, -345, 268, 67
14131, -882, 308, -357, 0, 210, -140, -349, 264, 76
14132, -882, 308, -357, 0, 210, -70, -349, 279, 73
14133, -882, 308, -357, 0, 210, -140, -346, 262, 70
14134, -883, 309, -357, -70, 210, -70, -346, 265, 64
14135, -883, 307, -357, 0, 140, -70, -349, 267, 64
14136, -883, 308, -357, 0, 140, -70, -348, 262, 73
14137, -882, 308, -357, 0, 210, -70, -360, 270, 64
14138, -883, 309, -357, 0, 140, -140, -346, 279, 69
14139, -882, 309, -357, 0, 210, -70, -351, 276, 70
14140, -882, 308, -357, -70, 210, -70, -351, 273, 66
14141, -883, 308, -357, 0, 140, -70, -343, 270, 63
14142, -883, 308, -357, 0, 140, -70, -346, 268, 72
14143, -883, 308, -356, -70, 140, -140, -352, 279, 73
14144, -883, 308, -356, -70, 210, -70, -343, 271, 72
14145, -883, 308, -355, 0, 140, 0, -339, 276, 67
14146, -883, 308, -356, -70, 140, -70, -355, 261, 76
14147, -883, 308, -357, 0, 140, -70, -340, 268, 60
14148, -882, 308, -357, 0, 140, -70, -346, 273, 69
14149, -881, 309, -357, -70, 210, -70, -358, 265, 63
14150, -882, 308, -356, 0, 210, -70, -354, 270, 72
14151, -882, 309, -356, 0, 140, -70, -345, 270, 70
14152, -883, 308, -356, 0, 140, -70, -352, 273, 66
14153, -883, 308, -356, 70, 210, -140, -348, 271, 73
14154, -883, 308, -357, 0, 140, -70, -342, 276, 66
14155, -882, 309, -356, -70, 210, -70, -346, 267, 63
14156, -882, 308, -357, 0, 210, -70, -342, 261, 66
14157, -882, 308, -357, 70, 210, -70, -358, 270, 61
14158, -883, 308, -356, 0, 140, -70, -345, 271, 69
14159, -882, 308, -356, 0, 140, -70, -342, 268, 61
14160, -883, 308, -357, -70, 140, -70, -348, 270, 70
14161, -884, 309, -357, 0, 140, -70, -349, 264, 64
14162, -882, 308, -358, -70, 210, -70, -348, 265, 67
14163, -883, 308, -358, -70, 140, -70, -349, 271, 61
14164, -883, 308, -357, -70, 140, -70, -342, 273, 64
14165, -883, 308, -357, 0, 210, -140, -351, 273, 67
14166, -882, 308, -356, -70, 140, -70, -355, 271, 73
14167, -882, 309, -356, 0, 140, -70, -351, 267, 73
14168, -883, 308, -357, 0, 140, -70, -352, 268, 73
14169, -882, 308, -357, -70, 210, -70, -348, 262, 70
14170, -882, 308, -357, 70, 140, -70, -340, 270, 72
14171, -882, 308, -357, 0, 140, -70, -355, 262, 64
14172, -883, 308, -356, 0, 140, -70, -351, 283, 73
14173, -882, 308, -357, 0, 140, -70, -352, 270, 67
14174, -883, 308, -355, 0, 210, -70, -346, 264, 70
14175, -883, 308, -355, 0, 280, -70, -345, 277, 61
14176, -882, 308, -357, 0, 140, -140, -352, 271, 73
14177, -882, 308, -357, 0, 140, -70, -354, 282, 66
14178, -882, 308, -357, -70, 140, -70, -334, 271, 78
14179, -882, 308, -356, 0, 210, -70, -345, 265, 72
14180, -883, 308, -357, 0, 140, -70, -346, 273, 72
14181, -882, 308, -356, 0, 210, 0, -340, 274, 70
14182, -883, 309, -357, 0, 140, -140, -342, 274, 73
14183, -883, 308, -356, 0, 140, -70, -348, 273, 61
14184, -882, 308, -356, -70, 140, -70, -339, 265, 81
14185, -883, 308, -357, 0, 140, -70, -357, 276, 58
14186, -882, 308, -357, -70, 140, -70, -342, 258, 73
14187, -882, 308, -355, 0, 140, -70, -345, 270, 69
14188, -883, 309, -358, 0, 210, -70, -343, 276, 69
14189, -883, 308, -357, 70, 210, -70, -348, 279, 61
14190, -882, 308, -357, 70, 70, -70, -342, 270, 63
14191, -883, 309, -356, 0, 140, -70, -340, 265, 75
14192, -883, 309, -357, 70, 140, -70, -343, 262, 64
14193, -882, 308, -357, -70, 140, -70, -342, 271, 70
14194, -883, 308, -356, 0, 140, -70, -342, 276, 63
14195, -882, 308, -356, 0, 140, -70, -349, 270, 64
14196, -883, 308, -357, 0, 140, -140, -345, 271, 72
14197, -883, 308, -357, 0, 140, -70, -348, 273, 61
14198, -883, 308, -356, 0, 140, -70, -348, 259, 67
14199, -883, 309, -357, 0, 210, 0, -349, 271, 76
14200, -883, 308, -357, 0, 280, -70, -343, 264, 69
14201, -883, 308, -356, 0, 140, -70, -357, 267, 72
14202, -882, 308, -357, -70, 70, -70, -346, 271, 69
14203, -883, 308, -356, 0, 140, -70, -340, 268, 75
14204, -882, 308, -357, 70, 140, -70, -349, 262, 64
14205, -882, 309, -356, 0, 140, -70, -352, 268, 67
14206, -883, 308, -356, 0, 140, -70, -348, 267, 64
14207, -882, 308, -357, 0, 140, -70, -349, 265, 70
14208, -883, 308, -357, 70, 210, -70, -354, 274, 72
14209, -883, 309, -356, 0, 70, -70, -357, 258, 69
14210, -882, 308, -356, -70, 210, -70, -349, 268, 66
14211, -883, 308, -356, 0, 140, -70, -351, 273, 66
14212, -882, 308, -357, -70, 140, -70, -348, 270, 72
14213, -882, 308, -357, 0, 210, -70, -346, 270, 72
14214, -882, 308, -357, 70, 140, -140, -351, 274, 76
14215, -882, 309, -357, 0, 210, -70, -346, 268, 63
14216, -882, 308, -356, -70, 140, -70, -348, 267, 73
14217, -883, 308, -356, 0, 210, -70, -345, 274, 67
14218, -882, 308, -356, 70, 140, -70, -349, 270, 75
14219, -882, 309, -357, 0, 210, -70, -343, 267, 70
14220, -883, 309, -356, 0, 140, -70, -349, 273, 70
14221, -882, 308, -357, 70, 210, -70, -355, 265, 63
14222, -882, 308, -356, 0, 140, -70, -351, 267, 73
14223, -883, 309, -356, 0, 210, -140, -351, 267, 63
14224, -882, 309, -357, 0, 140, -70, -348, 268, 73
14225, -882, 308, -357, -70, 140, -70, -352, 270, 66
14226, -882, 308, -357, 0, 140, -70, -342, 261, 67
14227, -882, 309, -357, 0, 210, -70, -339, 262, 70
14228, -883, 309, -357, -70, 210, -140, -348, 270, 72
14229, -882, 308, -357, 0, 140, -140, -348, 276, 67
14230, -883, 308, -358, 0, 140, -70, -343, 276, 67
14231, -883, 308, -356, -70, 140, -70, -357, 264, 66
14232, -882, 308, -356, 0, 210, 0, -342, 270, 63
14233, -882, 308, -357, 0, 140, -70, -346, 265, 60
14234, -882, 308, -357, 0, 140, -70, -337, 264, 66
14235, -882, 308, -357, 0, 210, -70, -351, 267, 73
14236, -883, 308, -357, 0, 140, -70, -343, 264, 64
14237, -883, 308, -357, -70, 140, -70, -343, 271, 69
14238, -883, 308, -357, -70, 210, -70, -357, 273, 70
14239, -883, 308, -357, -70, 210, -70, -352, 267, 66
14240, -882, 308, -356, -70, 210, -70, -343, 274, 70
14241, -883, 308, -357, 0, 140, -70, -345, 268, 73
14242, -882, 308, -356, 0, 70, -70, -348, 276, 67
14243, -882, 308, -357, 0, 140, -70, -346, 264, 58
14244, -882, 308, -357, 0, 210, -70, -352, 273, 67
14245, -883, 308, -357, 0, 140, -70, -351, 268, 75
14246, -882, 308, -357, 70, 210, -70, -345, 261, 81
14247, -883, 308, -356, 0, 210, -70, -354, 274, 75
14248, -883, 308, -356, 0, 140, -70, -352, 271, 70
14249, -883, 308, -356, -70, 140, -70, -351, 276, 70
14250, -883, 308, -357, 0, 140, -70, -342, 259, 69
14251, -882, 309, -356, 0, 140, -70, -351, 273, 70
14252, -882, 308, -357, -70, 140, -70, -346, 276, 70
14253, -883, 308, -356, 70, 140, -70, -355, 262, 60
14254, -883, 309, -357, 0, 140, -70, -346, 273, 69
14255, -883, 308, -357, 0, 210, -70, -352, 268, 67
14256, -882, 308, -357, 0, 140, -70, -348, 268, 58
14257, -883, 309, -357, 0, 140, -70, -351, 267, 66
14258, -883, 308, -357, 0, 210, -70, -355, 267, 76
14259, -882, 309, -357, 0, 210, -70, -342, 271, 72
14260, -882, 308, -356, 0, 140, -70, -351, 274, 69
14261, -883, 310, -357, 0, 210, -70, -345, 268, 72
14262, -882, 309, -356, 0, 210, -70, -351, 270, 73
14263, -882, 309, -357, -70, 140, 0, -348, 267, 67
14264, -883, 308, -357, 70, 140, -70, -355, 265, 76
14265, -883, 308, -357, 0, 210, -140, -342, 273, 73
14266, -882, 309, -357, 70, 210, -70, -355, 273, 64
14267, -882, 308, -357, -70, 140, 0, -345, 262, 63
14268, -883, 308, -356, 0, 140, -70, -342, 265, 72
14269, -883, 309, -357, -70, 140, -70, -346, 270, 66
14270, -883, 309, -357, 70, 210, -70, -348, 273, 75
14271, -882, 308, -357, 70, 140, -70, -345, 273, 70
14272, -883, 308, -357, 0, 210, -70, -345, 271, 72
14273, -882, 308, -356, -70, 210, -70, -351, 279, 60
14274, -882, 308, -357, 0, 70, -70, -342, 258, 72
14275, -882, 308, -356, 0, 210, -70, -342, 270, 73
14276, -882, 308, -357, 70, 280, -70, -351, 282, 69
14277, -882, 309, -357, 70, 210, -70, -343, 271, 66
14278, -882, 309, -355, 0, 140, -140, -354, 259, 70
14279, -882, 308, -357, 70, 140, -70, -351, 264, 64
14280, -882, 309, -358, 0, 140, -70, -349, 264, 72
14281, -883, 308, -356, 0, 210, -70, -339, 265, 69
14282, -882, 308, -357, 0, 210, -70, -345, 259, 63
14283, -882, 308, -357, 0, 210, -70, -348, 274, 61
14284, -883, 309, -357, 0, 140, -140, -343, 268, 66
14285, -883, 309, -357, 0, 140, -70, -345, 267, 64
14286, -883, 308, -356, -70, 210, -70, -352, 259, 72
14287, -882, 308, -356, 70, 210, -70, -345, 259, 76
14288, -883, 308, -356, 0, 210, -70, -348, 261, 64
14289, -882, 309, -357, 0, 210, -70, -351, 273, 69
14290, -882, 308, -357, 0, 140, -70, -343, 268, 66
14291, -882, 308, -356, 0, 210, -70, -351, 261, 66
14292, -883, 308, -356, 0, 140, -70, -346, 262, 61
14293, -882, 308, -357, 0, 140, -70, -340, 279, 64
14294, -883, 309, -357, 0, 140, -70, -345, 265, 63
14295, -883, 308, -357, -70, 140, -70, -343, 271, 69
14296, -883, 308, -356, 0, 210, -70, -342, 279, 58
14297, -882, 309, -358, 0, 210, -70, -343, 274, 72
14298, -882, 309, -356, 0, 140, -70, -349, 268, 63
14299, -883, 307, -356, 0, 140, -70, -352, 265, 70
14300, -882, 308, -356, 0, 140, -70, -348, 262, 69
14301, -882, 308, -356, 0, 140, -70, -352, 262, 67
14302, -882, 308, -356, 70, 140, -70, -346, 267, 70
14303, -882, 308, -356, -70, 140, -140, -346, 262, 66
14304, -883, 308, -357, -70, 140, -70, -339, 267, 61
14305, -883, 309, -357, 70, 210, -70, -345, 268, 70
14306, -883, 309, -357, 0, 140, -70, -357, 274, 66
14307, -883, 309, -358, 0, 140, -70, -348, 267, 73
14308, -882, 307, -356, -70, 210, -70, -345, 276, 70
14309, -882, 309, -357, 0, 210, -70, -349, 268, 60
14310, -883, 308, -357, -70, 140, -70, -354, 265, 69
14311, -883, 308, -357, 0, 140, -70, -346, 264, 66
14312, -883, 309, -358, 0, 210, -70, -343, 270, 72
14313, -882, 308, -357, 0, 140, -70, -348, 262, 64
14314, -882, 308, -357, 0, 140, -70, -343, 259, 73
14315, -882, 308, -357, -70, 210, -70, -349, 270, 72
14316, -882, 308, -356, 0, 140, -70, -348, 268, 75
14317, -882, 308, -357, 70, 210, -70, -342, 264, 70
14318, -882, 308, -356, 0, 140, -70, -348, 270, 73
14319, -883, 308, -356, 70, 140, -140, -343, 273, 72
14320, -883, 308, -356, -70, 210, -70, -342, 267, 64
14321, -883, 307, -356, 70, 140, -70, -348, 273, 64
14322, -883, 308, -357, 0, 210, -70, -342, 270, 61
14323, -883, 308, -357, 0, 140, -70, -346, 264, 60
14324, -882, 308, -356, -70, 210, 0, -352, 267, 64
14325, -882, 308, -357, 0, 140, -70, -346, 265, 73
14326, -883, 308, -357, 70, 140, -70, -345, 268, 64
14327, -883, 308, -356, 0, 140, -70, -345, 267, 66
14328, -882, 308, -357, 0, 70, -70, -345, 276, 76
14329, -883, 308, -357, 70, 140, -70, -339, 271, 61
14330, -883, 308, -356, 0, 140, -70, -342, 270, 66
14331, -883, 309, -357, 0, 140, -70, -342, 264, 63
14332, -883, 308, -356, 0, 210, -70, -343, 273, 70
14333, -882, 308, -357, 0, 210, -70, -337, 267, 63
14334, -882, 308, -356, 0, 140, -70, -349, 271, 66
14335, -882, 308, -357, 70, 140, -70, -346, 268, 63
14336, -883, 308, -356, 70, 140, -70, -351, 271, 63
14337, -882, 308, -356, 0, 210, -70, -346, 256, 60
14338, -882, 308, -357, 70, 210, -70, -357, 267, 69
14339, -882, 308, -357, 0, 140, -70, -351, 265, 69
14340, -882, 309, -357, 0, 140, -70, -348, 270, 72
14341, -883, 308, -357, 0, 140, -70, -336, 264, 69
14342, -882, 308, -356, -70, 140, -70, -346, 267, 67
14343, -883, 309, -357, 0, 210, -70, -336, 264, 70
14344, -882, 308, -356, 0, 140, -140, -352, 268, 70
14345, -882, 309, -356, 70, 140, -70, -337, 262, 73
14346, -883, 308, -357, 0, 210, -140, -352, 268, 76
14347, -882, 308, -357, 0, 140, -70, -346, 271, 66
14348, -882, 308, -357, 0, 210, -70, -351, 270, 67
14349, -883, 308, -356, -70, 210, -70, -346, 268, 64
14350, -881, 308, -356, 70, 210, -70, -345, 276, 73
14351, -882, 308, -355, 0, 140, -70, -349, 274, 70
14352, -882, 308, -357, 0, 210, -70, -343, 273, 75
14353, -883, 308, -356, 0, 140, -70, -352, 261, 64
14354, -883, 308, -357, -70, 140, -70, -345, 270, 70
14355, -883, 308, -357, 0, 140, -140, -354, 264, 64
14356, -883, 308, -357, 0, 210, -70, -352, 271, 78
14357, -882, 308, -357, 0, 140, -70, -351, 264, 70
14358, -883, 309, -358, 0, 140, -70, -349, 268, 73
14359, -882, 308, -357, 70, 210, -70, -349, 262, 66
14360, -883, 308, -357, -70, 140, -70, -352, 261, 52
14361, -883, 308, -357, 0, 140, -70, -348, 265, 70
14362, -882, 308, -356, 0, 210, -70, -351, 265, 75
14363, -883, 308, -356, 0, 210, -70, -343, 276, 72
14364, -883, 309, -357, 0, 210, -70, -342, 270, 73
14365, -883, 308, -357, 0, 210, -70, -349, 276, 66
14366, -883, 308, -357, 70, 280, -70, -345, 261, 73
14367, -882, 308, -355, 0, 140, -70, -342, 262, 67
14368, -882, 308, -357, 70, 140, -70, -343, 267, 69
14369, -883, 308, -357, 0, 140, -70, -352, 267, 70
14370, -883, 308, -357, 0, 140, -70, -342, 264, 55
14371, -882, 309, -356, 0, 140, -70, -354, 271, 70
14372, -882, 308, -358, 0, 140, -70, -349, 276, 73
14373, -883, 308, -357, -70, 210, -70, -352, 273, 60
14374, -883, 309, -356, 0, 140, -70, -346, 262, 66
14375, -883, 308, -356, 0, 140, -70, -345, 268, 67
14376, -882, 309, -356, 0, 210, -70, -349, 267, 70
14377, -883, 308, -357, 0, 140, -70, -351, 273, 66
14378, -883, 308, -358, -70, 140, -70, -343, 270, 78
14379, -883, 308, -357, -70, 140, -70, -351, 277, 69
14380, -882, 309, -356, -70, 210, -70, -352, 267, 60
14381, -883, 309, -355, 0, 140, -70, -349, 267, 73
14382, -882, 308, -357, 0, 140, -70, -352, 264, 72
14383, -883, 308, -356, -70, 140, -70, -349, 268, 66
14384, -882, 308, -357, 0, 210, -70, -345, 273, 73
14385, -882, 308, -357, 0, 140, -70, -343, 277, 61
14386, -883, 308, -357, 70, 210, -70, -354, 265, 78
14387, -883, 309, -357, 0, 140, -70, -349, 265, 73
14388, -882, 308, -358, -70, 210, -140, -346, 273, 70
14389, -883, 308, -356, 0, 210, -70, -349, 264, 70
14390, -882, 307, -357, 0, 140, -70, -340, 271, 66
14391, -882, 308, -357, 0, 140, -70, -351, 271, 70
14392, -882, 308, -356, -70, 140, -70, -351, 268, 69
14393, -882, 308, -357, -70, 210, -70, -351, 274, 69
14394, -883, 308, -356, 0, 140, -70, -343, 270, 70
14395, -883, 309, -356, 0, 210, 0, -343, 276, 64
14396, -882, 309, -357, 0, 140, -70, -352, 264, 58
14397, -883, 308, -357, 0, 210, -70, -355, 259, 69
14398, -883, 309, -357, -70, 210, -70, -346, 268, 70
14399, -882, 308, -356, 0, 210, -70, -354, 268, 61
14400, -882, 308, -356, -70, 210, -70, -351, 265, 69
14401, -882, 308, -356, 0, 210, -70, -345, 264, 64
14402, -883, 308, -357, 0, 140, -70, -348, 267, 76
14403, -883, 308, -356, -70, 210, -70, -340, 270, 73
14404, -881, 308, -356, 0, 210, -70, -351, 265, 75
14405, -882, 308, -357, 0, 140, -70, -342, 271, 69
14406, -882, 308, -356, 0, 140, -70, -348, 279, 73
14407, -883, 309, -356, 0, 140, -70, -346, 264, 63
14408, -883, 308, -358, 0, 140, -70, -345, 264, 78
14409, -883, 309, -357, 0, 140, -70, -348, 267, 70
14410, -883, 307, -357, 0, 140, -140, -346, 268, 72
14411, -882, 308, -357, 0, 70, -70, -345, 270, 63
14412, -882, 307, -357, -70, 140, -70, -354, 276, 73
14413, -883, 309, -357, 70, 210, -70, -340, 270, 73
14414, -883, 308, -357, 0, 210, -70, -348, 274, 76
14415, -882, 308, -356, 0, 140, -70, -346, 268, 66
14416, -882, 308, -357, 0, 140, -70, -346, 273, 69
14417, -882, 308, -357, 70, 140, -70, -346, 258, 73
14418, -882, 308, -357, 70, 140, -70, -346, 264, 72
14419, -882, 308, -357, 70, 210, -70, -345, 276, 66
14420, -882, 309, -357, 0, 140, -70, -355, 271, 72
14421, -882, 308, -357, 0, 210, -70, -337, 262, 73
