Time [mS], AccX [mg],AccY [mg],AccZ [mg],GyroX [mdps],GyroY [mdps],GyroZ [mdps],MagX [mgauss],MagY [mgauss],MagZ [mgauss]
302, -300, 927, 241, 210, 840, -210, -627, 390, -79
303, -294, 929, 244, 70, 980, 560, -619, 393, -81
304, -293, 932, 244, -350, 1820, 1260, -622, 391, -73
305, -299, 932, 234, -560, 1680, 1400, -627, 391, -75
306, -291, 936, 249, -1750, 2800, 2450, -622, 390, -72
307, -303, 931, 248, -2590, 2030, 2730, -618, 391, -67
308, -310, 923, 236, -2450, 1470, 3150, -627, 388, -79
309, -305, 925, 230, -1260, 420, 3500, -624, 385, -75
310, -304, 926, 233, -350, -350, 4060, -612, 382, -84
311, -243, 907, 244, 1330, -1050, 14140, -619, 390, -82
312, -188, 900, 246, 1400, -980, 28280, -622, 399, -70
313, -274, 933, 245, 1890, 0, 40460, -616, 391, -79
314, -175, 908, 244, 2030, -420, 45710, -639, 391, -72
315, -216, 932, 247, 3010, -140, 52990, -633, 382, -70
316, -207, 932, 244, 2520, -70, 46480, -628, 390, -66
317, -334, 967, 256, 2450, -350, 50470, -637, 379, -81
318, -408, 995, 248, 980, -490, 31990, -639, 388, -66
319, -369, 984, 244, 560, -1470, 18340, -643, 387, -78
320, -265, 956, 243, 350, -2590, 6720, -645, 393, -72
321, -216, 943, 238, 350, -2520, 7350, -633, 390, -78
322, -165, 931, 241, 280, -1610, 9450, -640, 381, -67
323, -24, 898, 236, 770, -1960, 26110, -642, 384, -79
324, -97, 940, 243, 1190, -840, 43470, -640, 382, -73
325, -319, 988, 241, 560, -840, 49980, -652, 385, -67
326, -223, 966, 228, 630, -1330, 39550, -648, 390, -67
327, -387, 994, 235, 910, -1820, 22260, -645, 384, -72
328, -194, 959, 235, 630, -2240, 8470, -654, 378, -78
329, -172, 957, 237, 700, -2800, 6510, -654, 384, -81
330, -164, 958, 247, 420, -2800, 5740, -658, 390, -72
331, -162, 957, 248, 210, -2310, 5740, -648, 381, -84
332, -159, 955, 248, 280, -2030, 5600, -661, 387, -63
333, -158, 953, 249, 280, -1820, 5670, -655, 372, -63
334, -162, 953, 251, 210, -1400, 5600, -654, 382, -70
335, -166, 955, 252, 210, -1050, 5530, -655, 375, -69
336, -165, 953, 253, 140, -1190, 5460, -654, 388, -60
337, -163, 953, 255, 210, -1260, 5390, -651, 387, -81
338, -162, 953, 255, 140, -1470, 5320, -654, 382, -73
339, -157, 952, 255, 210, -1820, 5110, -655, 387, -67
340, -152, 954, 254, 210, -2030, 5040, -664, 387, -67
341, -148, 956, 254, 140, -2030, 4830, -657, 384, -69
342, -145, 958, 250, -70, -1820, 4620, -664, 382, -73
343, -142, 957, 250, -210, -1400, 4410, -663, 381, -75
344, -146, 958, 240, -350, 840, 4480, -649, 381, -67
345, -134, 957, 243, -140, -70, 4270, -655, 378, -76
346, -139, 959, 242, 0, -280, 4060, -660, 373, -76
347, -137, 962, 240, 0, -700, 3780, -663, 378, -73
348, -125, 961, 238, -70, -700, 3220, -661, 381, -69
349, -120, 959, 239, 70, -350, 2730, -651, 378, -79
350, -119, 955, 240, 0, 0, 2450, -655, 378, -75
351, -128, 956, 243, 70, 350, 2170, -652, 373, -75
352, -136, 959, 245, 70, 630, 1890, -655, 378, -70
353, -160, 956, 250, 210, 350, 1540, -666, 379, -72
354, -170, 956, 252, 140, 210, 1540, -660, 379, -70
355, -178, 956, 254, 0, 0, 1680, -664, 387, -70
356, -178, 954, 255, 0, -140, 2030, -663, 378, -69
357, -178, 953, 253, 70, 0, 2450, -661, 385, -84
358, -187, 951, 247, 70, 210, 3430, -658, 378, -72
359, -180, 950, 250, 140, 350, 3780, -667, 381, -73
360, -183, 951, 250, 140, 700, 3990, -661, 387, -60
361, -180, 961, 243, 210, 490, 4270, -660, 381, -79
362, -173, 961, 239, 210, -700, 4620, -655, 379, -76
363, -160, 957, 232, 140, -1120, 4760, -660, 384, -72
364, -167, 959, 232, 140, -1190, 5040, -664, 381, -70
365, -160, 959, 236, 140, -700, 5180, -661, 385, -76
366, -174, 959, 233, 210, -350, 5250, -660, 376, -76
367, -168, 962, 231, 280, -910, 5670, -654, 388, -75
368, -166, 963, 234, 350, -1190, 5810, -660, 384, -66
369, -173, 959, 236, 420, -1260, 6020, -664, 381, -73
370, -168, 956, 237, 350, -1260, 6230, -661, 372, -66
371, -167, 959, 237, 280, -1470, 6510, -666, 375, -66
372, -157, 958, 243, 350, -1820, 6930, -661, 379, -61
373, -156, 958, 246, 420, -1890, 7070, -667, 379, -70
374, -153, 960, 248, 420, -1680, 7280, -663, 378, -63
375, -153, 959, 248, 420, -1610, 7350, -670, 382, -70
376, -146, 957, 250, 420, -1890, 7630, -669, 369, -76
377, -137, 959, 251, 350, -2100, 7700, -667, 379, -70
378, -137, 960, 250, 420, -2240, 7770, -669, 378, -69
379, -133, 959, 251, 350, -2100, 7840, -661, 372, -70
380, -135, 957, 251, 350, -1820, 7840, -666, 388, -73
381, -129, 958, 250, 420, -1820, 7910, -673, 381, -61
382, -124, 959, 251, 490, -1820, 7910, -669, 375, -66
383, -125, 959, 251, 420, -1890, 7910, -675, 384, -73
384, -120, 962, 249, 350, -1750, 7910, -676, 369, -63
385, -121, 960, 249, 420, -1820, 7700, -673, 376, -72
386, -93, 965, 245, 420, -1960, 7490, -670, 378, -73
387, -81, 968, 246, 420, -2660, 6930, -658, 379, -73
388, -54, 974, 242, 420, -3290, 6300, -676, 379, -66
389, -50, 976, 232, 140, -3360, 5390, -663, 376, -61
390, -22, 950, 236, -70, -1540, 3920, -667, 370, -69
391, -31, 941, 245, 140, 210, 3640, -675, 373, -64
392, -56, 966, 229, 140, 2030, 3570, -667, 379, -66
393, -63, 1022, 171, -70, 2520, 2940, -673, 376, -69
394, -67, 1029, 152, -840, -140, 1960, -669, 381, -72
395, -51, 895, 191, -1120, -3150, -490, -672, 379, -79
396, -60, 869, 213, -140, 770, -700, -678, 390, -69
397, -50, 907, 229, 1050, 3780, 0, -675, 373, -64
398, -105, 969, 247, 1750, 4970, 490, -673, 378, -73
399, -119, 1021, 268, 1400, 6650, 1050, -675, 378, -69
400, -160, 1020, 273, 420, 6720, 1190, -675, 382, -66
401, -189, 997, 257, -630, 5180, 1120, -666, 364, -70
402, -171, 973, 251, -1330, 1470, 1190, -676, 373, -67
403, -183, 949, 253, -1470, -2870, 1120, -678, 364, -67
404, -124, 945, 263, -490, -5880, 840, -669, 370, -73
405, -67, 937, 258, 140, -4130, 840, -672, 382, -72
406, -55, 931, 250, 700, -1820, 840, -670, 378, -76
407, -33, 945, 247, 840, 280, 910, -673, 376, -73
408, -61, 963, 249, 560, 1890, 910, -667, 379, -61
409, -109, 978, 261, -350, 3850, 630, -673, 376, -76
410, -113, 969, 263, -420, 3220, 210, -669, 372, -60
411, -122, 955, 260, -280, 1260, -210, -664, 381, -75
412, -97, 945, 261, 70, -910, -770, -675, 379, -73
413, -82, 940, 264, 490, -770, -1330, -676, 372, -73
414, -73, 963, 266, 490, 1050, -1540, -669, 381, -70
415, -75, 973, 263, 280, 2380, -1680, -678, 372, -69
416, -83, 973, 256, 0, 2800, -1750, -672, 379, -67
417, -82, 960, 255, -140, 2800, -1890, -667, 378, -70
418, -96, 949, 250, 70, 2520, -2450, -673, 375, -60
419, -98, 955, 247, 140, 2520, -2940, -667, 369, -70
420, -85, 961, 248, 280, 2240, -3360, -672, 376, -69
421, -80, 961, 245, 350, 2100, -3710, -670, 378, -75
422, -78, 959, 246, 350, 2100, -4060, -678, 391, -73
423, -101, 965, 247, 70, 2800, -4340, -673, 366, -75
424, -109, 968, 248, 0, 3430, -4480, -678, 372, -72
425, -106, 968, 251, -70, 3780, -4480, -669, 382, -79
426, -111, 965, 249, 0, 4130, -4410, -672, 378, -66
427, -121, 962, 248, 140, 4410, -4340, -681, 372, -78
428, -135, 963, 243, 140, 4620, -4340, -667, 379, -66
429, -136, 965, 241, 140, 4760, -4270, -669, 378, -79
430, -136, 970, 239, 70, 4760, -4060, -670, 372, -73
431, -142, 975, 233, -70, 4270, -3850, -666, 379, -73
432, -150, 965, 226, -210, 3220, -3710, -679, 375, -82
433, -146, 967, 226, -280, 3080, -3640, -663, 381, -73
434, -133, 969, 225, -140, 3080, -3570, -670, 376, -69
435, -123, 963, 227, -70, 3360, -3430, -664, 370, -61
436, -124, 956, 229, 70, 3710, -3290, -669, 382, -76
437, -144, 977, 226, 70, 3570, -3290, -675, 379, -72
438, -150, 976, 226, 0, 2730, -3360, -667, 381, -79
439, -141, 969, 229, -210, 1890, -3430, -664, 382, -76
440, -130, 967, 231, -350, 1680, -3570, -664, 384, -61
441, -120, 957, 233, -210, 1820, -3640, -666, 367, -70
442, -98, 964, 232, -210, 2310, -3780, -672, 376, -79
443, -89, 969, 232, -280, 3150, -3990, -660, 376, -76
444, -95, 959, 231, -210, 3780, -4270, -666, 376, -70
445, -106, 953, 234, -210, 3990, -4690, -661, 376, -61
446, -137, 973, 239, -140, 1890, -5600, -667, 366, -69
447, -147, 959, 241, -210, 70, -5950, -667, 385, -73
448, -136, 955, 245, -210, -630, -6230, -664, 372, -78
449, -119, 966, 249, -210, 70, -6300, -661, 379, -79
450, -101, 969, 249, -350, 1330, -6230, -670, 388, -70
451, -113, 960, 239, -490, 3010, -6230, -666, 388, -82
452, -136, 959, 234, -490, 3150, -6370, -663, 384, -75
453, -155, 952, 233, -420, 2730, -6650, -666, 385, -78
454, -172, 952, 234, -280, 1400, -7000, -672, 384, -75
455, -161, 979, 233, -210, -1050, -7070, -664, 385, -64
456, -144, 978, 232, -350, -490, -6790, -658, 376, -69
457, -135, 971, 230, -700, 1120, -6440, -660, 387, -76
458, -144, 963, 224, -910, 2730, -6090, -661, 370, -70
459, -161, 957, 219, -840, 3360, -5880, -655, 375, -73
460, -168, 960, 218, -560, 1890, -5880, -658, 384, -78
461, -157, 961, 223, -350, 1260, -6090, -654, 378, -70
462, -150, 959, 225, -280, 840, -6230, -654, 379, -66
463, -146, 963, 225, -280, 560, -6300, -664, 388, -72
464, -151, 961, 231, -280, 630, -6370, -660, 385, -72
465, -161, 962, 249, -560, 1890, -6090, -649, 382, -78
466, -165, 946, 246, -420, 1890, -6090, -660, 385, -78
467, -169, 945, 259, -280, 1610, -5880, -654, 379, -73
468, -172, 956, 261, -210, 1820, -5810, -652, 376, -70
469, -177, 945, 260, -350, 1260, -5810, -660, 388, -78
470, -179, 946, 259, -420, 700, -5670, -663, 381, -75
471, -185, 961, 257, -490, 210, -5600, -657, 388, -73
472, -178, 950, 258, -420, -630, -5460, -651, 370, -79
473, -191, 940, 266, -350, -560, -5460, -660, 384, -73
474, -188, 949, 263, -210, 630, -4830, -660, 391, -72
475, -175, 944, 265, -70, 1470, -4270, -660, 376, -67
476, -202, 947, 260, 0, 2030, -3850, -660, 382, -78
477, -192, 956, 258, -70, 2170, -3360, -660, 378, -76
478, -215, 956, 256, -210, 2170, -3080, -654, 382, -73
479, -220, 942, 249, -210, 1330, -2520, -657, 384, -75
480, -205, 945, 247, -140, 420, -2240, -654, 385, -64
481, -218, 953, 240, -70, -350, -1960, -658, 378, -88
482, -199, 959, 240, 0, -630, -1610, -667, 375, -78
483, -194, 960, 234, -70, -280, -910, -649, 381, -76
484, -203, 958, 228, -140, 0, -490, -652, 381, -75
485, -192, 953, 228, -140, 70, -140, -655, 373, -75
486, -199, 951, 229, -140, 0, 210, -652, 381, -72
487, -189, 953, 232, 0, 70, 420, -652, 372, -69
488, -192, 957, 234, 70, -210, 770, -654, 382, -73
489, -198, 961, 232, 0, -560, 980, -658, 387, -69
490, -196, 964, 230, -210, -840, 1120, -663, 378, -70
491, -199, 965, 228, -210, -1190, 1470, -657, 384, -78
492, -197, 958, 228, -350, -980, 2100, -661, 378, -70
493, -198, 955, 229, -210, -490, 2520, -658, 381, -78
494, -197, 956, 229, 0, -280, 2940, -657, 387, -66
495, -200, 952, 233, 70, 70, 3360, -660, 379, -75
496, -203, 950, 234, 280, 70, 3780, -664, 384, -70
497, -210, 958, 236, 140, 0, 4690, -657, 390, -76
498, -206, 960, 237, 0, -210, 5040, -655, 385, -70
499, -197, 960, 238, -210, -490, 5390, -660, 388, -69
500, -186, 957, 238, -210, -700, 5670, -669, 384, -81
501, -173, 958, 234, -210, -910, 5880, -660, 381, -72
502, -147, 964, 219, -280, -1050, 5740, -652, 381, -69
503, -135, 969, 210, -350, -1120, 5530, -651, 376, -78
504, -122, 973, 205, -420, -1190, 5110, -651, 382, -73
505, -113, 973, 207, -420, -840, 4760, -660, 373, -75
506, -105, 970, 210, -140, -140, 3850, -648, 381, -72
507, -93, 967, 217, 0, 210, 3290, -658, 385, -81
508, -83, 973, 223, 70, 630, 2730, -657, 384, -70
509, -78, 976, 230, 70, 1050, 1960, -655, 382, -72
510, -74, 970, 240, 0, 1540, 1190, -661, 381, -67
511, -99, 952, 243, -210, 1820, -280, -661, 376, -72
512, -116, 955, 237, -350, 1260, -980, -660, 387, -73
513, -117, 962, 236, -630, 560, -1610, -654, 382, -79
514, -113, 963, 238, -840, 420, -2170, -660, 372, -85
515, -95, 961, 243, -840, 1120, -2520, -658, 381, -76
516, -70, 963, 244, -630, 3920, -3290, -660, 384, -73
517, -64, 962, 248, -420, 5530, -3780, -658, 382, -81
518, -49, 962, 254, -210, 7350, -4270, -652, 384, -72
519, -42, 969, 259, -70, 9520, -4900, -649, 385, -81
520, -39, 969, 264, -70, 12740, -6580, -658, 379, -76
521, -71, 936, 267, -210, 13510, -7420, -652, 382, -76
522, -96, 920, 261, -350, 13930, -8190, -661, 393, -79
523, -119, 930, 248, -630, 13720, -8890, -655, 384, -75
524, -135, 958, 240, -980, 13020, -9520, -667, 379, -81
525, -150, 977, 250, -1190, 11760, -10780, -651, 382, -75
526, -147, 966, 254, -910, 11410, -11200, -660, 375, -85
527, -148, 958, 251, -490, 11270, -11480, -649, 378, -84
528, -150, 956, 246, -70, 11200, -11760, -651, 384, -84
529, -168, 944, 242, 140, 11410, -11900, -646, 382, -81
530, -206, 930, 237, -140, 12670, -11690, -661, 397, -82
531, -215, 947, 236, -420, 13300, -11130, -663, 390, -87
532, -236, 957, 236, -770, 13790, -10570, -651, 385, -85
533, -238, 963, 240, -910, 14420, -9660, -654, 381, -81
534, -253, 961, 243, -560, 16170, -7840, -652, 381, -76
535, -274, 943, 250, -210, 17360, -6790, -658, 384, -93
536, -287, 931, 253, 350, 18060, -5670, -643, 381, -81
537, -311, 925, 256, 630, 18200, -4410, -648, 387, -91
538, -326, 929, 263, 700, 17640, -3150, -652, 382, -79
539, -357, 926, 282, 490, 15540, -630, -651, 394, -73
540, -367, 921, 290, 350, 13860, 560, -643, 385, -81
541, -364, 919, 301, 140, 12110, 1750, -651, 390, -85
542, -362, 915, 308, 70, 10010, 2870, -655, 393, -87
543, -346, 912, 312, 70, 7840, 3990, -646, 388, -87
544, -314, 918, 306, 210, 4340, 5670, -654, 375, -96
545, -300, 923, 304, 350, 2940, 6440, -645, 388, -90
546, -278, 926, 301, 280, 1960, 7140, -651, 378, -87
547, -270, 926, 297, 210, 1330, 7840, -646, 381, -91
548, -258, 932, 289, 140, 0, 9030, -660, 387, -88
549, -252, 933, 288, 140, -770, 9450, -654, 375, -90
550, -248, 932, 285, 210, -1890, 9730, -648, 373, -81
551, -234, 931, 282, 280, -3290, 9730, -649, 378, -90
552, -223, 933, 276, 350, -4760, 9730, -651, 384, -85
553, -186, 938, 268, 420, -7280, 9380, -654, 384, -76
554, -166, 946, 264, 420, -7980, 9100, -648, 379, -97
555, -146, 955, 260, 350, -8190, 8750, -649, 388, -85
556, -124, 963, 254, 280, -7980, 8260, -657, 375, -85
557, -103, 965, 248, 280, -7210, 7700, -661, 384, -88
558, -72, 966, 228, 420, -4480, 6510, -658, 390, -87
559, -65, 971, 220, 490, -2940, 5880, -666, 382, -85
560, -57, 975, 210, 420, -1330, 5110, -657, 385, -90
561, -57, 977, 201, 420, -140, 4130, -654, 385, -78
562, -56, 988, 183, 210, 770, 1820, -652, 387, -85
563, -54, 988, 179, 70, 980, 560, -654, 378, -87
564, -51, 985, 175, 0, 1120, -770, -652, 372, -73
565, -51, 980, 173, -70, 1190, -2100, -657, 388, -84
566, -54, 974, 171, 0, 1470, -3360, -652, 381, -96
567, -64, 965, 172, 350, 2030, -5740, -651, 375, -90
568, -66, 973, 172, 630, 2170, -6930, -663, 370, -82
569, -69, 985, 168, 490, 2170, -8190, -648, 384, -81
570, -67, 991, 167, 280, 2310, -9450, -660, 387, -79
571, -66, 988, 167, 70, 2450, -10640, -655, 375, -88
572, -65, 969, 171, -140, 3080, -13020, -654, 379, -81
573, -70, 962, 175, -70, 3500, -14210, -654, 373, -84
574, -77, 962, 179, 140, 3710, -15400, -654, 381, -79
575, -83, 962, 183, 280, 3850, -16660, -652, 382, -85
576, -83, 970, 192, 280, 3710, -19320, -657, 394, -85
577, -70, 967, 200, 140, 3710, -20580, -646, 387, -87
578, -78, 962, 206, 0, 4060, -21910, -646, 385, -79
579, -67, 957, 214, 0, 4550, -23170, -642, 382, -82
580, -80, 950, 219, 70, 5110, -24500, -646, 388, -82
581, -88, 943, 229, 280, 5950, -27230, -648, 382, -81
582, -80, 942, 233, 420, 6230, -28630, -645, 390, -79
583, -93, 943, 235, 350, 6370, -30100, -640, 385, -84
584, -84, 944, 238, 350, 6510, -31570, -637, 385, -79
585, -97, 941, 240, 280, 6650, -33040, -633, 379, -85
586, -97, 932, 246, 140, 7140, -36120, -631, 393, -90
587, -88, 926, 250, 280, 7560, -37730, -633, 382, -90
588, -100, 920, 251, 280, 8120, -39270, -633, 391, -82
589, -93, 917, 251, 420, 8540, -40810, -630, 391, -84
590, -99, 915, 250, 490, 9520, -44240, -630, 393, -84
591, -110, 914, 247, 420, 9940, -46060, -628, 385, -85
592, -105, 911, 249, 350, 10290, -47810, -627, 394, -88
593, -115, 906, 246, 350, 10640, -49700, -625, 393, -87
594, -111, 901, 246, 210, 11060, -51520, -624, 403, -82
595, -59, 985, 183, -2310, 38710, -52220, -604, 394, -82
596, 144, 943, 225, -2030, 48300, -52010, -610, 394, -85
597, -500, 803, 167, -2100, 55020, -50400, -607, 387, -99
598, -83, 745, 249, -910, 60480, -50680, -609, 393, -82
599, -887, 844, 55, 1330, 42350, -49070, -603, 388, -85
600, -990, 832, 74, 1680, 26250, -48160, -600, 397, -88
601, -744, 868, 84, 2520, 12530, -47740, -592, 384, -102
602, -1008, 838, 114, 3290, -1750, -47950, -591, 402, -94
603, -546, 853, 225, 3010, -14910, -47320, -591, 393, -93
604, -288, 1002, 205, 490, -9450, -41510, -589, 397, -97
605, -454, 943, 175, -70, 3080, -37450, -582, 390, -96
606, -464, 827, 218, -140, 13790, -33320, -588, 397, -97
607, -445, 820, 269, 490, 21560, -30590, -576, 396, -96
608, -228, 909, 269, -140, 46200, -25550, -573, 393, -93
609, -736, 783, 170, 910, 64190, -17220, -576, 397, -102
610, -958, 742, 190, 2100, 52570, -14630, -579, 396, -91
611, -933, 822, 189, 2240, 41790, -11830, -577, 385, -91
612, -1081, 885, 151, 1470, 32550, -8680, -583, 405, -94
613, -978, 885, 155, -350, 21490, -2800, -583, 396, -99
614, -764, 871, 214, -700, 18620, -70, -583, 388, -94
615, -833, 945, 210, -770, 11270, 3570, -571, 396, -91
616, -813, 878, 199, -980, 3150, 8400, -576, 391, -99
617, -783, 777, 212, -560, -1680, 11410, -573, 393, -97
618, -679, 793, 193, -280, -3990, 14490, -574, 391, -112
619, -573, 851, 207, -560, -2380, 16450, -583, 397, -103
620, -462, 903, 223, -1260, 770, 18970, -571, 391, -94
621, -405, 940, 230, -1680, 6370, 21980, -585, 397, -99
622, -413, 951, 221, -2240, 14490, 24920, -577, 394, -99
623, -530, 850, 190, -2870, 28420, 28700, -580, 397, -97
624, -533, 825, 182, -2870, 30240, 29400, -592, 399, -102
625, -500, 836, 166, -2800, 29610, 29610, -595, 402, -97
626, -452, 846, 168, -2660, 27160, 29540, -588, 399, -94
627, -428, 882, 157, -2730, 15820, 28770, -595, 394, -108
628, -444, 955, 142, -2940, 8960, 28420, -603, 396, -97
629, -452, 948, 142, -3150, 2520, 27790, -588, 399, -102
630, -444, 935, 134, -3290, -2730, 26880, -597, 391, -96
631, -388, 904, 146, -3430, -6230, 26040, -597, 394, -94
632, -267, 883, 164, -3080, -6650, 24570, -597, 387, -108
633, -243, 903, 162, -2590, -4760, 23800, -601, 390, -105
634, -240, 918, 166, -2380, -3360, 22750, -600, 396, -96
635, -258, 932, 158, -2030, -5320, 21210, -600, 393, -103
636, -171, 933, 170, -2100, -5600, 19460, -601, 393, -111
637, -90, 949, 175, -2380, 560, 15820, -600, 382, -97
638, -19, 944, 190, -2380, 6090, 14140, -604, 394, -97
639, -12, 931, 197, -2310, 13860, 12740, -603, 399, -91
640, -19, 931, 196, -2100, 22470, 11340, -610, 399, -97
641, -76, 928, 181, -1260, 36680, 8050, -612, 394, -105
642, -212, 904, 169, -910, 40250, 6650, -607, 387, -94
643, -244, 894, 170, -210, 36820, 4200, -610, 397, -105
644, -134, 947, 178, 350, 33040, 1330, -610, 391, -100
645, 0, 1001, 188, 140, 37170, -840, -612, 394, -106
646, -216, 884, 178, 280, 41790, -4830, -598, 387, -105
647, -302, 850, 175, 1400, 34720, -7280, -606, 396, -102
648, -333, 873, 181, 2870, 25830, -9800, -609, 394, -108
649, -391, 930, 166, 3640, 16030, -11620, -606, 391, -111
650, -461, 955, 160, 3710, 6440, -12880, -600, 397, -109
651, -521, 906, 155, 2240, -4830, -12320, -604, 396, -100
652, -518, 908, 159, 1540, -4130, -11620, -601, 394, -109
653, -482, 896, 185, 1330, -1400, -10220, -598, 394, -102
654, -516, 881, 195, 1330, 2030, -7980, -600, 388, -111
655, -687, 879, 179, 1890, -2450, -2870, -604, 388, -106
656, -749, 892, 162, 1820, -9100, -700, -597, 396, -106
657, -709, 918, 163, 1330, -15680, 700, -597, 391, -97
658, -700, 944, 152, 350, -23380, 2170, -607, 394, -97
659, -596, 940, 164, -630, -29960, 3430, -595, 403, -97
660, -483, 889, 187, -1890, -36190, 7000, -601, 387, -105
661, -480, 880, 193, -1960, -34510, 9100, -597, 381, -100
662, -452, 873, 205, -1610, -29400, 11130, -603, 397, -96
663, -453, 874, 206, -1260, -23170, 13020, -603, 385, -102
664, -415, 890, 206, -1050, -17150, 14700, -603, 393, -97
665, -384, 926, 193, -1820, -10290, 17850, -612, 394, -100
666, -398, 932, 187, -2450, -9170, 19040, -610, 390, -93
667, -407, 934, 185, -2940, -8400, 19950, -613, 384, -105
668, -394, 932, 185, -3430, -7210, 20790, -615, 393, -100
669, -348, 910, 188, -3500, -2590, 22400, -615, 393, -100
670, -343, 898, 185, -3290, -1120, 22960, -612, 385, -90
671, -347, 899, 177, -3010, -980, 23030, -610, 390, -97
672, -362, 907, 170, -2800, -2520, 22890, -625, 390, -96
673, -364, 919, 165, -2730, -5740, 22540, -616, 391, -106
674, -368, 931, 167, -2660, -14140, 21280, -627, 396, -97
675, -354, 931, 171, -2590, -18200, 20580, -616, 387, -103
676, -329, 929, 175, -2590, -21910, 19950, -624, 394, -100
677, -308, 923, 183, -2520, -24360, 19460, -624, 384, -102
678, -308, 923, 184, -2380, -26530, 19040, -628, 390, -96
679, -321, 918, 194, -1890, -30730, 18270, -621, 385, -97
680, -316, 921, 196, -1540, -32690, 17570, -625, 394, -99
681, -299, 927, 197, -1400, -34930, 17010, -622, 391, -96
682, -272, 926, 204, -1330, -36750, 16380, -630, 396, -87
683, -253, 925, 214, -910, -40250, 14840, -625, 385, -96
684, -241, 932, 218, -910, -42140, 14070, -619, 400, -93
685, -221, 937, 225, -700, -43050, 13440, -621, 394, -87
686, -203, 938, 234, -630, -42910, 12880, -625, 391, -85
687, -191, 934, 242, -490, -41300, 12320, -634, 387, -85
688, -172, 936, 245, -350, -37030, 11480, -648, 387, -93
689, -154, 936, 254, -210, -34160, 11130, -628, 384, -91
690, -131, 934, 257, -210, -30380, 10920, -633, 382, -91
691, -131, 933, 259, -210, -26390, 10570, -636, 393, -84
692, -134, 941, 256, -210, -22610, 10290, -630, 387, -85
693, -142, 946, 253, -140, -15960, 9590, -631, 381, -82
694, -142, 942, 253, -70, -12880, 9310, -628, 391, -81
695, -159, 942, 251, -70, -10430, 8890, -630, 385, -91
696, -170, 943, 248, -70, -8470, 8330, -636, 391, -85
697, -184, 941, 243, -70, -6860, 7210, -636, 385, -81
698, -187, 938, 244, 0, -6720, 6650, -637, 388, -91
699, -187, 939, 248, 70, -6720, 6090, -637, 385, -88
700, -187, 944, 250, 70, -6580, 5460, -642, 393, -94
701, -182, 945, 253, 0, -6090, 4900, -634, 384, -84
702, -180, 940, 256, 70, -4340, 4060, -636, 384, -79
703, -184, 940, 254, 0, -3640, 3640, -639, 388, -82
704, -196, 940, 251, 0, -3010, 3360, -643, 388, -87
705, -206, 940, 250, -70, -2800, 2940, -642, 382, -81
706, -211, 937, 250, -70, -3640, 2030, -634, 387, -85
707, -214, 944, 251, 70, -3990, 1750, -648, 391, -90
708, -226, 945, 253, 0, -4480, 1470, -645, 384, -90
709, -232, 942, 254, -70, -5250, 1120, -637, 388, -82
710, -238, 938, 254, 0, -6230, 700, -639, 388, -79
711, -233, 937, 257, 140, -8540, 140, -643, 388, -93
712, -238, 939, 255, 210, -9380, -70, -640, 388, -82
713, -245, 934, 258, 280, -10010, -210, -642, 376, -96
714, -243, 934, 259, 280, -10640, -350, -636, 381, -79
715, -227, 934, 265, 420, -10360, -280, -637, 393, -82
716, -217, 933, 273, 210, -6930, 210, -646, 387, -84
717, -227, 935, 271, 210, -5460, 490, -639, 393, -93
718, -228, 938, 272, 70, -4270, 840, -639, 384, -79
719, -228, 942, 270, 70, -3080, 1190, -630, 391, -81
720, -235, 939, 268, -70, -1120, 1680, -645, 381, -73
721, -259, 932, 263, 0, -1120, 1890, -630, 387, -90
722, -259, 933, 266, -140, -1400, 2170, -633, 385, -84
723, -254, 936, 269, -140, -1190, 2590, -627, 391, -81
724, -258, 943, 266, -210, -630, 3010, -639, 382, -85
725, -261, 953, 255, -140, 1260, 4060, -637, 396, -84
726, -254, 946, 248, -140, 2520, 4620, -643, 387, -82
727, -247, 945, 242, 0, 3920, 5250, -637, 387, -82
728, -244, 949, 234, 0, 5460, 5950, -642, 390, -87
729, -250, 945, 224, 0, 7070, 6650, -646, 391, -88
730, -276, 947, 194, 280, 7840, 7420, -639, 387, -87
731, -278, 956, 179, 490, 6790, 7700, -649, 381, -84
732, -286, 960, 172, 560, 5320, 7840, -651, 384, -79
733, -296, 963, 163, 770, 2940, 7980, -643, 387, -84
734, -297, 964, 157, 910, -2660, 8120, -637, 388, -78
735, -264, 976, 147, 910, -4410, 8260, -651, 391, -88
736, -248, 974, 140, 980, -5040, 8470, -646, 379, -82
737, -232, 969, 139, 1050, -5040, 8680, -643, 388, -88
738, -218, 965, 139, 980, -4760, 8750, -652, 384, -73
739, -208, 965, 133, 770, -3220, 9100, -637, 381, -79
740, -204, 972, 132, 630, -2660, 9240, -645, 379, -75
741, -205, 978, 128, 560, -2030, 9380, -649, 385, -79
742, -214, 980, 125, 350, -2100, 9240, -636, 382, -84
743, -212, 979, 124, 210, -3220, 8960, -649, 390, -73
744, -176, 979, 123, 0, -5740, 8190, -645, 384, -70
745, -165, 974, 123, -70, -6090, 7770, -646, 391, -70
746, -165, 966, 123, -70, -6720, 7210, -646, 382, -75
747, -164, 960, 125, 0, -7560, 6650, -654, 379, -76
748, -167, 960, 126, 70, -9030, 5600, -655, 385, -70
749, -204, 963, 127, 210, -11200, 4900, -651, 379, -76
750, -216, 960, 132, 350, -14490, 4130, -642, 382, -69
751, -212, 965, 137, 490, -18200, 3360, -652, 385, -78
752, -199, 974, 144, 560, -21630, 2660, -655, 379, -78
753, -175, 966, 166, 350, -25620, 1540, -648, 379, -81
754, -171, 963, 177, 280, -26180, 1120, -651, 387, -76
755, -164, 966, 189, 210, -26110, 840, -657, 388, -67
756, -161, 965, 201, 70, -25340, 770, -658, 387, -76
757, -160, 958, 211, 140, -24220, 700, -658, 376, -73
758, -163, 949, 232, 350, -20510, 980, -661, 388, -70
759, -177, 954, 237, 490, -19040, 1120, -652, 381, -78
760, -196, 957, 240, 420, -18760, 1120, -657, 378, -64
761, -205, 956, 244, 350, -19600, 1190, -649, 388, -64
762, -202, 952, 259, 280, -21140, 1260, -655, 387, -63
763, -192, 946, 268, 210, -21140, 1330, -649, 378, -67
764, -174, 943, 278, 420, -20090, 1610, -657, 391, -64
765, -158, 945, 286, 490, -17850, 2100, -645, 382, -73
766, -145, 946, 292, 560, -14840, 2660, -666, 382, -64
767, -144, 945, 297, 700, -8190, 3640, -663, 384, -73
768, -151, 948, 295, 700, -5460, 4060, -652, 394, -70
769, -154, 952, 291, 560, -3290, 4410, -655, 372, -63
770, -160, 952, 286, 490, -1680, 4690, -652, 384, -60
771, -166, 950, 282, 490, -700, 4830, -657, 382, -64
772, -171, 948, 270, 560, 70, 4970, -658, 384, -66
773, -176, 950, 267, 700, 140, 4970, -660, 381, -76
774, -180, 950, 263, 700, -70, 4970, -651, 390, -60
775, -188, 950, 258, 770, -700, 4900, -658, 375, -66
776, -191, 952, 253, 840, -3430, 4550, -649, 379, -54
777, -182, 954, 253, 840, -4970, 4410, -663, 390, -61
778, -180, 955, 252, 840, -6230, 4200, -651, 379, -69
779, -180, 956, 250, 840, -7910, 3920, -652, 375, -58
780, -180, 958, 249, 910, -10010, 3570, -661, 370, -60
781, -168, 952, 254, 840, -13720, 3010, -654, 385, -61
782, -159, 949, 259, 770, -14560, 2800, -646, 379, -63
783, -149, 950, 262, 910, -14700, 2520, -651, 381, -66
784, -137, 954, 264, 980, -14280, 2310, -660, 385, -52
785, -129, 955, 268, 980, -13510, 2240, -658, 388, -67
786, -122, 954, 273, 910, -10710, 2310, -654, 385, -63
787, -123, 955, 273, 980, -8890, 2310, -660, 382, -64
788, -124, 956, 273, 910, -7070, 2310, -651, 384, -61
789, -126, 956, 270, 840, -5320, 2310, -664, 393, -61
790, -154, 957, 261, 700, -4550, 2100, -660, 378, -54
791, -165, 957, 260, 770, -5600, 1960, -663, 385, -69
792, -166, 955, 262, 770, -6720, 1890, -658, 382, -57
793, -157, 951, 266, 770, -7070, 1820, -667, 385, -60
794, -145, 950, 269, 910, -6440, 1750, -658, 387, -54
795, -112, 954, 273, 840, -3290, 1890, -660, 375, -54
796, -104, 955, 272, 840, -1260, 1960, -667, 387, -57
797, -116, 954, 266, 840, 420, 2030, -663, 391, -55
798, -129, 953, 264, 840, 1400, 1960, -660, 375, -49
799, -144, 953, 261, 910, 1750, 1610, -654, 379, -55
800, -153, 954, 258, 840, 560, 1330, -658, 384, -60
801, -149, 961, 259, 840, -910, 910, -654, 375, -64
802, -135, 966, 263, 700, -2170, 560, -670, 378, -55
803, -114, 965, 267, 630, -2590, 210, -655, 385, -52
804, -92, 949, 275, 700, 210, -210, -658, 378, -51
805, -89, 941, 274, 910, 2240, -350, -661, 381, -69
806, -96, 941, 269, 980, 4410, -490, -652, 379, -55
807, -104, 944, 267, 1120, 6020, -700, -658, 379, -58
808, -116, 950, 262, 1260, 6510, -980, -657, 373, -52
809, -123, 971, 255, 1330, 5670, -1960, -661, 382, -51
810, -126, 970, 255, 1330, 4550, -2450, -663, 385, -70
811, -121, 960, 256, 1330, 3710, -3010, -661, 381, -54
812, -121, 950, 260, 1260, 3220, -3430, -654, 373, -52
813, -112, 949, 261, 1260, 3430, -4480, -658, 381, -55
814, -93, 948, 270, 1260, 4550, -4900, -666, 378, -51
815, -80, 947, 276, 1330, 6580, -4970, -651, 379, -63
816, -80, 950, 282, 1260, 9590, -4900, -660, 379, -52
817, -82, 954, 287, 1400, 12950, -4830, -651, 378, -61
818, -131, 946, 278, 1400, 19530, -4480, -654, 370, -57
819, -170, 925, 274, 1470, 20860, -4340, -661, 370, -58
820, -263, 922, 244, 1540, 16800, -4900, -657, 373, -55
821, -234, 962, 245, 1610, 9450, -6230, -654, 388, -61
822, -182, 980, 256, 1260, 6300, -5880, -655, 370, -49
823, -161, 941, 276, 1120, 1750, -6930, -661, 381, -58
824, -153, 930, 279, 1330, 1680, -7350, -657, 378, -58
825, -130, 934, 281, 1330, 2870, -7140, -648, 382, -60
826, -140, 942, 281, 1470, 3990, -7000, -657, 370, -61
827, -127, 950, 288, 1470, 8050, -6720, -657, 379, -57
828, -146, 947, 297, 1330, 10360, -6580, -657, 388, -63
829, -147, 944, 301, 1190, 12180, -6370, -657, 379, -48
830, -134, 945, 303, 910, 14280, -6230, -657, 373, -52
831, -129, 940, 309, 770, 17010, -5950, -654, 381, -58
832, -133, 927, 320, 560, 22890, -5460, -661, 376, -63
833, -151, 929, 322, 490, 24710, -5320, -655, 387, -60
834, -150, 932, 325, 420, 26040, -5180, -652, 378, -60
835, -151, 939, 324, 350, 28350, -4970, -655, 379, -54
836, -161, 935, 331, 280, 30520, -4760, -651, 376, -66
837, -165, 912, 337, 0, 32830, -4270, -652, 391, -55
838, -164, 913, 333, -210, 34090, -3850, -654, 384, -60
839, -170, 907, 337, -490, 36190, -3360, -646, 370, -69
840, -180, 896, 345, -560, 38640, -2730, -648, 385, -63
841, -172, 884, 351, -910, 45780, -1120, -645, 382, -67
842, -151, 908, 359, -1260, 50260, -350, -646, 382, -67
843, -132, 915, 362, -1400, 55020, 490, -648, 372, -69
844, -117, 910, 364, -1540, 60340, 1190, -654, 384, -70
845, -119, 902, 367, -1680, 65310, 1960, -649, 375, -73
846, -130, 884, 361, -1750, 69510, 2800, -646, 375, -70
847, -127, 873, 364, -1750, 68670, 2940, -648, 373, -81
848, -124, 859, 360, -1470, 67620, 3010, -652, 387, -84
849, -122, 843, 367, -1190, 67550, 3080, -652, 379, -82
850, -148, 840, 362, -770, 68110, 3150, -654, 375, -93
851, -208, 879, 340, -280, 66920, 2450, -646, 372, -81
852, -234, 918, 329, -280, 64400, 1680, -649, 376, -81
853, -217, 972, 326, -350, 60690, 770, -646, 366, -90
854, -213, 1067, 301, -490, 57330, -280, -642, 379, -91
855, -245, 1280, 226, -1120, 47600, -2800, -654, 372, -96
856, -272, 1291, 198, -1960, 39340, -4410, -648, 372, -90
857, -251, 1300, 171, -2660, 30380, -5670, -648, 375, -94
858, -176, 1260, 182, -3150, 22050, -6440, -645, 369, -103
859, -113, 1142, 178, -3290, 16380, -6720, -643, 372, -93
860, -175, 788, 165, -2590, 11690, -7210, -643, 373, -85
861, -223, 682, 157, -2100, 9870, -7630, -646, 375, -91
862, -239, 672, 151, -1610, 9380, -8050, -634, 372, -94
863, -252, 735, 157, -1330, 10080, -8540, -642, 373, -100
864, -259, 833, 167, -1400, 10920, -8820, -643, 382, -97
865, -259, 995, 212, -2310, 9380, -9170, -631, 375, -106
866, -233, 1030, 233, -2520, 8190, -9100, -640, 372, -97
867, -181, 1024, 246, -2240, 9030, -8890, -646, 373, -103
868, -170, 991, 239, -1400, 12810, -8540, -636, 382, -102
869, -249, 895, 213, -140, 21000, -8050, -639, 367, -111
870, -286, 875, 206, -140, 21210, -7980, -639, 369, -96
871, -271, 852, 198, -490, 19880, -7980, -631, 381, -103
872, -240, 831, 207, -1330, 19320, -7700, -637, 370, -97
873, -216, 815, 205, -1960, 20300, -7350, -642, 373, -108
874, -244, 803, 215, -2660, 23870, -6300, -630, 378, -97
875, -255, 872, 228, -2940, 25130, -5740, -631, 372, -109
876, -283, 973, 245, -3290, 25830, -5320, -633, 373, -96
877, -294, 1020, 281, -3360, 25130, -4830, -630, 373, -103
878, -259, 998, 307, -2590, 24290, -4340, -627, 378, -108
879, -111, 926, 318, 1680, 35700, -1680, -634, 372, -115
880, -120, 816, 291, 4270, 45780, 0, -631, 378, -111
881, -203, 686, 254, 6160, 52220, 1400, -628, 375, -114
882, -273, 614, 217, 7000, 52780, 2380, -630, 378, -124
883, -346, 979, 165, 7070, 48020, 3360, -633, 381, -117
884, -371, 1166, 159, 6440, 48650, 3360, -630, 384, -117
885, -431, 1209, 149, 5250, 48650, 2870, -633, 379, -111
886, -462, 1223, 167, 3780, 45360, 2660, -630, 378, -117
887, -338, 1177, 188, 2170, 39900, 3150, -633, 379, -115
888, -107, 876, 181, 840, 40320, 5880, -628, 381, -115
889, -105, 809, 176, 1400, 45850, 8120, -622, 376, -123
890, -197, 868, 147, 2520, 50330, 9450, -622, 382, -126
891, -340, 980, 94, 3780, 52080, 10010, -634, 375, -121
892, -408, 1082, 60, 4900, 51660, 9590, -634, 376, -132
893, -382, 1096, 63, 5180, 41020, 8260, -640, 379, -120
894, -343, 1006, 80, 4200, 30730, 7840, -633, 369, -124
895, -287, 928, 103, 3290, 18970, 7700, -625, 375, -126
896, -216, 856, 129, 2730, 9100, 8050, -640, 379, -118
897, -179, 647, 160, 4130, 7910, 9520, -630, 376, -118
898, -210, 541, 169, 6020, 13440, 10150, -631, 375, -126
899, -242, 523, 158, 7980, 18410, 10570, -637, 381, -123
900, -245, 630, 139, 9660, 22470, 10990, -640, 373, -133
901, -281, 903, 114, 10570, 25060, 10990, -634, 375, -121
902, -535, 1691, -9, 7630, 13300, 8190, -631, 379, -129
903, -706, 1939, -66, 3290, -5740, 5110, -639, 373, -121
904, -674, 1737, -53, -2380, -30800, 2380, -637, 376, -120
905, -505, 1388, -50, -7210, -56490, 840, -637, 381, -123
906, -222, 1155, -9, -10640, -70840, 3220, -633, 367, -118
907, -122, 814, 61, -12390, -63700, 4900, -639, 382, -121
908, -262, 709, 84, -11900, -56560, 5670, -637, 376, -112
909, -371, 713, 94, -10920, -52430, 6090, -639, 375, -129
910, -360, 778, 98, -9590, -46760, 6440, -631, 382, -118
911, -253, 792, 131, -6510, -28070, 7280, -643, 378, -117
912, -269, 780, 143, -5530, -20510, 7560, -642, 367, -115
913, -269, 815, 146, -5040, -17080, 7980, -640, 376, -108
914, -261, 853, 146, -4830, -16030, 8680, -646, 367, -114
915, -217, 854, 185, -4480, -15190, 9590, -654, 390, -118
916, -194, 803, 228, -2940, -11690, 11270, -640, 384, -120
917, -212, 774, 236, -1750, -9590, 12040, -642, 370, -124
918, -212, 741, 256, -210, -6860, 12670, -651, 379, -114
919, -216, 710, 261, 1400, -3780, 13230, -646, 375, -123
920, -210, 693, 271, 4830, 3220, 13930, -649, 375, -114
921, -195, 755, 274, 6300, 6300, 14210, -640, 378, -123
922, -183, 832, 270, 7280, 8750, 14560, -654, 373, -118
923, -184, 911, 264, 7700, 10290, 14840, -651, 376, -115
924, -248, 1055, 237, 7140, 9940, 14770, -642, 381, -120
925, -489, 1461, 147, 2240, -3360, 12670, -646, 382, -115
926, -501, 1487, 115, -2030, -16310, 11270, -652, 373, -127
927, -477, 1398, 85, -6440, -31710, 10150, -648, 379, -121
928, -414, 1303, 101, -10640, -47110, 9800, -655, 382, -120
929, -381, 1192, 111, -14000, -60620, 9730, -646, 378, -118
930, -308, 846, 161, -16310, -74690, 10080, -660, 373, -117
931, -326, 879, 196, -15260, -74200, 10430, -658, 372, -111
932, -289, 1058, 207, -13160, -70070, 10990, -658, 385, -115
933, -233, 1208, 229, -10640, -64260, 11620, -655, 373, -105
934, -189, 1243, 244, -5460, -53760, 12950, -654, 375, -117
935, -218, 1020, 176, -3710, -51660, 13510, -661, 372, -114
936, -250, 795, 161, -2730, -51660, 13650, -661, 376, -105
937, -313, 610, 172, -2170, -54670, 13580, -657, 373, -112
938, -294, 560, 170, -1330, -59360, 13440, -655, 385, -99
939, -184, 620, 217, 980, -54880, 13860, -661, 376, -103
940, -205, 656, 231, 2030, -49980, 14000, -667, 379, -97
941, -251, 742, 239, 2380, -49140, 13860, -670, 379, -90
942, -258, 905, 242, 1820, -52010, 13440, -664, 384, -93
943, -237, 1002, 255, 700, -54670, 12950, -673, 382, -94
944, -157, 856, 287, -1400, -52360, 11830, -667, 385, -85
945, -93, 744, 308, -2030, -49140, 11760, -667, 381, -103
946, -50, 654, 319, -2100, -45010, 11760, -675, 381, -88
947, 6, 566, 334, -1330, -39270, 11900, -670, 378, -91
948, 29, 516, 371, 3500, -22750, 11900, -670, 384, -85
949, 161, 865, 445, 7350, -11060, 12040, -672, 375, -90
950, 185, 1220, 431, 10780, 2100, 12110, -669, 379, -81
951, 102, 1550, 360, 12320, 12600, 12040, -675, 373, -78
952, -92, 1683, 269, 11200, 13090, 10780, -681, 372, -81
953, -268, 1602, 191, 3430, -18130, 4830, -678, 379, -76
954, -242, 1665, 62, -770, -31850, 2800, -679, 382, -72
955, -90, 1396, 12, -3990, -39550, 1470, -673, 372, -70
956, -122, 1128, 43, -6510, -44240, 350, -673, 373, -73
957, -115, 970, 89, -8610, -50820, -630, -669, 366, -69
958, -69, 879, 72, -11130, -56140, -2800, -678, 375, -66
959, -35, 910, 82, -11340, -51520, -3640, -679, 372, -69
960, -15, 944, 129, -11620, -45290, -4200, -676, 366, -63
961, 9, 934, 190, -11970, -40110, -4900, -664, 367, -76
962, 42, 910, 259, -10850, -28140, -6510, -678, 373, -61
963, 173, 850, 302, -8260, -15750, -6720, -676, 361, -60
964, 226, 786, 323, -4200, 2940, -6370, -669, 373, -64
965, 227, 704, 296, 350, 23100, -5880, -676, 369, -66
966, 123, 582, 254, 4130, 39130, -5670, -676, 373, -69
967, -121, 511, 155, 5950, 38010, -7140, -679, 369, -78
968, -155, 649, 139, 4830, 25410, -8610, -669, 378, -72
969, -133, 904, 133, 3150, 14420, -9940, -679, 376, -69
970, -161, 1197, 133, 1260, 9100, -10920, -670, 369, -67
971, -259, 1332, 143, -1680, 5040, -12040, -676, 375, -70
972, -362, 1520, 179, -10150, -17290, -15190, -663, 369, -72
973, -214, 1543, 232, -14280, -30450, -16100, -676, 363, -70
974, -21, 1409, 288, -17080, -33950, -15890, -667, 369, -78
975, 66, 1044, 308, -17850, -25270, -14700, -675, 370, -78
976, 2, 349, 361, -13790, 2590, -11410, -670, 378, -81
977, -9, 338, 360, -10010, 14630, -10290, -669, 364, -76
978, 0, 440, 351, -5670, 28070, -9310, -673, 378, -73
979, 21, 675, 376, -770, 41440, -8400, -663, 363, -90
980, -3, 1002, 360, 3920, 53200, -7700, -664, 372, -76
981, -80, 1160, 266, 8330, 65800, -6440, -669, 376, -81
982, -216, 996, 219, 7350, 59780, -6300, -672, 367, -78
983, -298, 882, 193, 5040, 44800, -6580, -663, 370, -91
984, -302, 857, 195, 2450, 29750, -6860, -667, 376, -82
985, -235, 883, 216, 700, 22190, -6650, -658, 381, -93
986, -237, 828, 185, -560, 25480, -5040, -670, 373, -81
987, -323, 866, 180, -1330, 21630, -4830, -664, 375, -90
988, -309, 981, 220, -2730, 12180, -5180, -664, 375, -100
989, -242, 1114, 260, -3990, 2870, -5530, -658, 373, -91
990, -107, 1298, 309, -3780, 3430, -5040, -649, 367, -90
991, -106, 1165, 300, -2450, 10780, -4340, -660, 376, -91
992, -181, 1001, 253, -1190, 15540, -4130, -660, 364, -91
993, -241, 896, 222, -700, 14560, -4130, -663, 372, -102
994, -264, 859, 216, -560, 9310, -4620, -661, 369, -85
995, -147, 1117, 208, -210, 3920, -4550, -660, 379, -91
996, -168, 1119, 212, -210, 5810, -3990, -670, 379, -91
997, -255, 980, 220, -910, 3640, -3850, -660, 384, -99
998, -291, 855, 217, -2030, -4130, -4060, -660, 378, -93
999, -261, 838, 211, -2870, -11690, -4270, -646, 373, -99
1000, -193, 889, 235, -3010, -8330, -3430, -670, 375, -100
1001, -290, 897, 223, -3150, -5460, -3220, -655, 372, -90
1002, -374, 862, 205, -3990, -11060, -3990, -675, 379, -87
1003, -364, 918, 197, -4830, -23380, -5390, -657, 376, -96
1004, -195, 1005, 294, -4690, -38990, -7420, -664, 373, -96
1005, -160, 859, 326, -3290, -36470, -7770, -657, 375, -96
1006, -186, 582, 338, -1190, -33390, -7980, -664, 369, -99
1007, -218, 345, 336, 1470, -33950, -8540, -658, 373, -96
1008, -197, 301, 338, 4480, -35630, -9100, -664, 376, -91
1009, -50, 477, 358, 11480, -25410, -7840, -661, 379, -87
1010, -25, 616, 377, 14630, -15120, -6020, -652, 376, -90
1011, -148, 1008, 350, 16590, -8540, -4760, -658, 372, -85
1012, -308, 1699, 334, 15680, -8120, -3220, -651, 376, -88
1013, -473, 1963, 283, 11760, -30870, -3780, -660, 381, -82
1014, -676, 1532, 260, -1120, -48510, -5390, -654, 376, -78
1015, -535, 1072, 244, -6160, -62090, -5600, -649, 376, -93
1016, -236, 729, 228, -8260, -64750, -4270, -660, 384, -81
1017, -56, 519, 225, -8120, -54390, -1750, -657, 379, -76
1018, -172, 459, 215, -6090, -30520, 3150, -652, 381, -79
1019, -325, 735, 228, -6510, -29750, 3990, -649, 379, -81
1020, -407, 1009, 276, -8400, -34930, 3640, -657, 375, -82
1021, -505, 1183, 308, -11130, -40740, 2520, -663, 384, -82
1022, -451, 1238, 319, -13510, -44240, 1750, -664, 385, -79
1023, -12, 1415, 424, -13580, -47600, 2170, -654, 378, -78
1024, 154, 1973, 413, -10920, -39340, 3640, -658, 388, -79
1025, -19, 1862, 390, -8330, -21770, 5950, -660, 388, -72
1026, -132, 1151, 335, -5320, -8750, 7210, -654, 390, -79
1027, -284, 702, 283, -1260, -10500, 5600, -657, 393, -78
1028, -189, 442, 225, 1260, -10640, 5250, -667, 388, -82
1029, -63, 334, 236, 4340, -980, 5880, -666, 393, -85
1030, -52, 197, 207, 7420, 11130, 7210, -669, 387, -78
1031, -109, 163, 177, 9450, 16870, 8190, -658, 385, -75
1032, -172, 897, 162, 9590, 8330, 9380, -667, 390, -72
1033, -172, 1675, 130, 7210, 6370, 10850, -658, 393, -72
1034, -349, 2096, 94, 2100, 2730, 12110, -666, 393, -72
1035, -572, 1963, 79, -5110, -15050, 11550, -658, 382, -64
1036, -654, 1634, 145, -13510, -44800, 8890, -660, 388, -73
1037, -320, 994, 218, -23520, -82880, 5530, -666, 382, -75
1038, -110, 496, 239, -22960, -72170, 6440, -666, 381, -69
1039, -31, 49, 239, -20160, -53270, 7910, -669, 378, -73
1040, 3, -151, 260, -16730, -40880, 9030, -675, 381, -66
1041, -53, -175, 313, -8750, -35280, 7000, -663, 379, -69
1042, 316, 303, 697, 70, -21280, 6230, -673, 382, -63
1043, 514, 953, 695, 13020, 15260, 7560, -667, 379, -60
1044, 611, 1679, 500, 25690, 68040, 12740, -675, 385, -66
1045, 606, 1901, 421, 33390, 116480, 18270, -672, 375, -64
1046, -557, 1340, 107, 27790, 87360, 16660, -658, 373, -67
1047, -665, 1402, 124, 18620, 31220, 12040, -664, 373, -66
1048, -372, 1459, 159, 12390, -2240, 9730, -672, 370, -60
1049, -92, 1200, 146, 10990, 4270, 9870, -672, 370, -67
1050, -116, 825, 109, 11760, 28770, 10990, -670, 375, -57
1051, -540, 597, 112, 7630, 11060, 8820, -676, 372, -63
1052, -387, 881, 106, 2660, -26250, 6090, -679, 366, -57
1053, -35, 1166, 138, -1050, -47390, 5320, -681, 376, -58
1054, 85, 1072, 181, -2450, -42490, 6300, -670, 373, -60
1055, -32, 671, 215, -3360, -26530, 6860, -678, 366, -60
1056, -406, 153, 203, -4200, -40040, 4900, -670, 379, -69
1057, -291, 395, 204, -4550, -54110, 2940, -681, 360, -66
1058, -61, 701, 272, -3920, -53480, 2240, -670, 376, -57
1059, 55, 886, 407, -2170, -39970, 2170, -669, 360, -64
1060, 209, 1414, 592, 7070, -20930, 770, -670, 375, -54
1061, 340, 2071, 454, 12600, -4830, 1890, -679, 367, -57
1062, 320, 1981, 318, 15470, 20860, 3570, -673, 372, -51
1063, -38, 1408, 228, 14840, 33740, 3780, -670, 370, -61
1064, -427, 990, 82, 10570, 16240, 1120, -682, 376, -51
1065, -281, 916, 112, 70, -46620, -4480, -676, 373, -48
1066, -47, 803, 152, -1190, -47110, -4550, -679, 367, -60
1067, 108, 477, 159, -350, -29260, -3150, -679, 373, -51
1068, -33, 123, 148, 840, -14560, -1890, -682, 376, -48
1069, -387, 969, 61, -700, -33040, -2660, -679, 370, -45
1070, -278, 1613, 127, -4620, -45780, -2940, -675, 373, -48
1071, -294, 1676, 215, -9870, -52360, -4060, -676, 381, -48
1072, -259, 1363, 418, -14630, -60620, -6580, -685, 378, -43
1073, -150, 1148, 523, -15190, -72380, -9590, -676, 376, -42
1074, 445, 1002, 425, -560, -34790, -9240, -663, 364, -39
1075, 590, 607, 409, 9240, 15400, -4970, -672, 375, -48
1076, 311, 114, 349, 17080, 53060, -1680, -679, 369, -49
1077, -108, -104, 193, 20720, 58030, -1260, -669, 375, -42
1078, -355, 73, 101, 20790, 36820, -2730, -676, 369, -45
1079, -164, 2386, -50, 16100, 15680, -1680, -679, 366, -42
1080, -326, 2702, -28, 8680, 21070, 0, -672, 370, -43
1081, -702, 2219, 20, -2170, 2030, -2100, -672, 373, -46
1082, -830, 1753, 94, -14770, -44310, -7070, -679, 367, -46
1083, -85, 1071, 228, -28770, -101570, -10430, -675, 376, -48
1084, 225, 279, 178, -26740, -75530, -7210, -673, 367, -60
1085, 327, -105, 221, -22050, -38430, -3010, -669, 376, -37
1086, -59, -431, 244, -17780, -17430, -490, -673, 369, -28
1087, -119, -627, 323, -13720, -21980, -1260, -682, 378, -42
1088, 519, 53, 486, 4830, -10500, -4270, -675, 376, -42
1089, 865, 455, 432, 18970, 42490, -770, -670, 367, -49
1090, 729, 480, 490, 29470, 112630, 5250, -672, 370, -45
1091, 259, 864, 367, 35700, 144690, 8820, -672, 385, -43
1092, -391, 2106, 194, 33110, 127050, 8960, -670, 379, -48
1093, -610, 3617, 135, 7910, 22890, 140, -676, 378, -43
1094, -613, 2687, 15, -4620, -12740, -4130, -684, 379, -46
1095, -489, 1630, 54, -13510, -34860, -5950, -675, 378, -48
1096, -314, 726, 83, -17710, -50610, -6230, -676, 372, -52
1097, 80, 50, 167, -14350, -41440, -3990, -678, 381, -51
1098, 85, 61, 174, -10500, -20510, -1960, -670, 379, -49
1099, -191, 93, 177, -7490, -6020, -700, -679, 384, -46
1100, -384, 398, 160, -6230, -6720, -1610, -673, 381, -58
1101, -393, 765, 274, -6440, -16450, -3500, -675, 376, -55
1102, 194, 1363, 437, -2100, -18480, -5460, -676, 382, -46
1103, 342, 1296, 376, 2310, 2590, -3500, -672, 379, -51
1104, 308, 729, 340, 6510, 25620, -1050, -678, 384, -42
1105, 59, 230, 246, 10220, 35560, 0, -673, 385, -49
1106, 12, 452, 141, 12670, 30450, 1120, -675, 382, -43
1107, 32, 1450, -44, 12810, 22470, 5110, -681, 381, -48
1108, -338, 1863, -1, 9030, 12740, 4830, -678, 387, -42
1109, -869, 1988, -2, 2240, -13860, 770, -672, 376, -36
1110, -1015, 1980, 61, -5530, -51870, -4970, -672, 378, -36
1111, -354, 1015, 187, -15260, -95550, -13790, -669, 385, -36
1112, 65, 513, 213, -14210, -87710, -14070, -669, 387, -33
1113, 191, 211, 226, -10780, -66710, -12390, -670, 381, -33
1114, 141, 5, 245, -6650, -46830, -10220, -673, 382, -27
1115, 30, -95, 246, -2730, -34930, -8540, -667, 382, -30
1116, 17, 142, 261, 3850, -19320, -6860, -670, 385, -24
1117, 88, 366, 258, 7140, -4900, -5530, -672, 381, -31
1118, 111, 637, 295, 9940, 11620, -3500, -672, 384, -24
1119, 103, 1076, 353, 11270, 24150, -2100, -670, 379, -27
1120, 40, 1577, 404, 12250, 26250, -2940, -670, 379, -27
1121, 35, 1923, 438, 12390, 31150, -3710, -679, 376, -37
1122, -21, 1385, 322, 11550, 38220, -3710, -672, 382, -28
1123, -57, 662, 204, 10080, 37730, -3710, -667, 379, -22
1124, -231, 203, 126, 8680, 24360, -5110, -672, 382, -25
1125, -100, 1008, 80, 8260, -3080, -6720, -672, 382, -21
1126, -132, 1623, 131, 7140, 700, -6160, -670, 382, -31
1127, -296, 1663, 190, 3640, 1260, -6650, -669, 376, -27
1128, -452, 1366, 231, -1680, -16030, -9520, -673, 378, -28
1129, -452, 1316, 221, -7560, -42980, -12530, -673, 381, -30
1130, -10, 1053, 168, -12740, -54320, -12530, -678, 379, -24
1131, 96, 797, 182, -12320, -39480, -10780, -667, 378, -28
1132, -144, 623, 198, -12040, -30240, -9940, -661, 382, -21
1133, -320, 607, 219, -12460, -33530, -10570, -660, 382, -16
1134, -357, 815, 216, -13510, -43960, -12600, -664, 379, -22
1135, -135, 925, 343, -12880, -39340, -12740, -660, 384, -28
1136, -61, 782, 429, -10850, -32550, -13300, -655, 375, -31
1137, -13, 686, 463, -7000, -25130, -13650, -660, 378, -28
1138, 86, 726, 443, -1330, -12600, -13370, -666, 381, -21
1139, 215, 1067, 352, 10080, 30870, -8960, -672, 379, -31
1140, -14, 1083, 272, 12110, 45360, -6930, -670, 381, -13
1141, -267, 964, 183, 10710, 41580, -6230, -654, 378, -24
1142, -432, 878, 185, 7140, 24360, -7350, -652, 382, -19
1143, -417, 1094, 169, 3500, 5810, -8120, -658, 376, -22
1144, -216, 1229, 151, -1190, 3290, -6090, -663, 382, -31
1145, -235, 965, 151, -2870, 4200, -5250, -658, 378, -30
1146, -357, 986, 171, -5040, -2730, -5320, -666, 385, -21
1147, -358, 1125, 189, -7420, -15190, -5810, -666, 384, -31
1148, -189, 1106, 259, -7000, -17360, -5250, -660, 388, -33
1149, 89, 1041, 392, -3710, -1470, -3570, -658, 382, -27
1150, 101, 792, 378, 210, 18270, -1470, -664, 384, -30
1151, 95, 485, 288, 3430, 33740, 630, -652, 384, -22
1152, -65, 362, 218, 5320, 40320, 2100, -658, 384, -34
1153, -191, 775, 240, 5320, 34020, 2870, -658, 378, -36
1154, -145, 1008, 263, 4480, 31990, 3500, -660, 378, -27
1155, -117, 1074, 277, 3570, 32200, 3920, -658, 375, -37
1156, -91, 1005, 300, 2590, 31010, 4200, -664, 385, -28
1157, -97, 904, 318, 1960, 27440, 3920, -663, 382, -31
1158, -81, 1689, 289, 5250, 24150, 3500, -655, 388, -30
1159, -208, 2250, 144, 6090, 31430, 3990, -658, 373, -31
1160, -450, 2042, 41, 3430, 31640, 3500, -666, 375, -27
1161, -665, 1370, 9, -1890, 8610, 770, -661, 388, -34
1162, -615, 986, 125, -13790, -63980, -4830, -652, 379, -48
1163, 29, 771, 201, -14350, -65170, -3920, -657, 379, -22
1164, 127, 328, 244, -11410, -39760, -1190, -657, 384, -33
1165, 25, -209, 258, -7490, -13510, 1540, -664, 388, -42
1166, -148, -420, 264, -4410, -6580, 2380, -661, 387, -30
1167, -77, 376, 247, -630, -13720, 1750, -660, 391, -34
1168, -28, 1206, 304, 210, 1260, 3290, -655, 388, -25
1169, -67, 1504, 341, -1120, 18200, 5250, -661, 391, -36
1170, -161, 1252, 510, -3150, 15260, 3920, -667, 385, -40
1171, -75, 1707, 570, -2310, -4830, 1610, -658, 391, -46
1172, 564, 2585, 228, 8190, 28350, 5460, -666, 391, -42
1173, 141, 1529, 259, 11900, 66850, 7000, -661, 390, -36
1174, -604, 390, 193, 12110, 61320, 3990, -669, 393, -40
1175, -745, -96, 143, 8470, 18620, -840, -666, 391, -43
1176, 259, 622, 191, 8050, -21700, -4550, -660, 393, -34
1177, 404, 545, 217, 11620, 15120, -1540, -661, 391, -33
1178, 194, 117, 210, 14420, 43400, 1470, -658, 388, -30
1179, -279, -74, 184, 14420, 36470, 840, -663, 391, -45
1180, -392, 386, 169, 11340, 5110, -1050, -678, 393, -34
1181, -183, 2170, 212, 3500, -11550, -3150, -670, 391, -31
1182, -392, 1959, 213, -1610, -2030, -4270, -658, 397, -27
1183, -503, 1385, 189, -8750, -18270, -6790, -664, 397, -28
1184, -602, 917, 229, -16240, -55510, -11130, -664, 399, -33
1185, -233, 915, 228, -20370, -87780, -13440, -667, 385, -22
1186, 421, 874, 330, -13230, -47110, -10710, -663, 381, -31
1187, 235, 699, 466, -5950, -12460, -9450, -660, 385, -25
1188, -78, 762, 465, -350, -1260, -10640, -666, 381, -19
1189, -285, 1058, 315, 2310, -9310, -13090, -664, 394, -16
1190, -234, 1366, 238, -420, -22050, -17360, -663, 382, -24
1191, -226, 944, 226, -3150, -29890, -19250, -661, 391, -22
1192, -235, 670, 184, -5460, -41370, -20860, -657, 387, -28
1193, -165, 721, 208, -7070, -47320, -21140, -658, 390, -24
1194, -177, 788, 229, -7840, -41860, -20300, -658, 384, -15
1195, -206, 337, 299, -7910, -18340, -17780, -648, 388, -22
1196, -203, 199, 301, -7420, -14980, -17430, -664, 400, -21
1197, -106, 393, 294, -6160, -11690, -16800, -648, 385, -18
1198, 99, 1073, 278, -4620, 3150, -14630, -643, 391, -19
1199, 17, 1810, 306, -5040, 25270, -11200, -645, 387, -34
1200, -508, 1584, 292, -14560, 15820, -11410, -642, 391, -27
1201, -512, 1309, 426, -18550, -14000, -15750, -651, 390, -31
1202, -38, 1539, 440, -17500, -25410, -17080, -649, 384, -30
1203, 408, 1295, 406, -12040, 5040, -14210, -654, 391, -31
1204, 71, -135, 318, 1540, 85960, -6160, -646, 387, -39
1205, -404, -226, 234, 4970, 79310, -6580, -648, 387, -40
1206, -448, 159, 155, 6720, 56140, -9030, -642, 391, -33
1207, -133, 694, 135, 8330, 47670, -9030, -646, 390, -45
1208, 128, 870, 203, 10010, 60900, -6930, -642, 391, -40
1209, -289, 528, 203, 10570, 69580, -5250, -639, 385, -46
1210, -543, 1141, 164, 8470, 47740, -6860, -643, 381, -36
1211, -496, 1968, 176, 4620, 28910, -7910, -646, 385, -46
1212, -311, 2259, 212, -770, 19110, -7210, -642, 390, -39
1213, -390, 1747, 231, -7000, 7560, -8820, -648, 390, -48
1214, -373, 670, 269, -15470, -38710, -10570, -646, 381, -58
1215, -63, 589, 309, -14280, -39130, -9800, -643, 387, -55
1216, 213, 514, 345, -9100, -12950, -7280, -648, 387, -51
1217, 199, 391, 404, -2660, 24080, -3920, -651, 394, -46
1218, -232, 540, 282, 7070, 49630, -2100, -640, 390, -45
1219, -250, 890, 293, 8610, 41580, -3080, -645, 394, -51
1220, -255, 1393, 254, 8890, 32970, -3850, -640, 390, -52
1221, -181, 1453, 238, 8330, 29330, -4270, -648, 396, -60
1222, -309, 1212, 221, 7000, 26670, -4970, -640, 391, -54
1223, -361, 979, 174, 3780, -630, -6930, -643, 385, -52
1224, -177, 1054, 176, 2030, -9380, -7000, -640, 393, -48
1225, -279, 1108, 154, 420, -10430, -6650, -634, 391, -55
1226, -434, 1060, 171, -1050, -13930, -7280, -646, 397, -42
1227, -565, 1066, 146, -5600, -35420, -10710, -645, 387, -54
1228, -482, 1249, 132, -8400, -47250, -12040, -642, 385, -54
1229, -290, 1134, 161, -10850, -54950, -12740, -633, 382, -48
1230, -283, 986, 173, -12950, -58800, -12810, -637, 394, -49
1231, -265, 752, 246, -14210, -59500, -12880, -637, 393, -49
1232, -32, 240, 486, -9520, -50680, -12670, -633, 399, -40
1233, 356, 504, 487, 2240, -28910, -11900, -640, 393, -48
1234, 655, 986, 458, 17080, 19810, -8330, -628, 394, -49
1235, 744, 975, 336, 27860, 91770, -1750, -631, 394, -63
1236, 272, 422, 248, 35210, 137480, 2800, -642, 396, -51
1237, -737, 426, 77, 30240, 74620, -1610, -625, 393, -54
1238, -521, 1485, 105, 24430, 27300, -5040, -631, 390, -49
1239, -145, 2077, 157, 19460, 19880, -4830, -639, 393, -54
1240, -223, 1720, 142, 15610, 34580, -4340, -633, 396, -58
1241, -499, 899, 143, 5040, -4620, -8470, -640, 394, -51
1242, -583, 619, 167, -140, -42140, -10780, -645, 403, -46
1243, -227, 1095, 143, -2100, -49000, -10990, -630, 403, -37
1244, 13, 1397, 125, -2380, -23310, -8190, -640, 406, -46
1245, -193, 1206, 110, -3710, 140, -5880, -630, 394, -43
1246, -930, 1155, 132, -16590, -50330, -10500, -637, 408, -43
1247, -680, 1335, 119, -23450, -87360, -13720, -634, 408, -48
1248, -157, 1205, 193, -26110, -91630, -14630, -636, 396, -51
1249, 252, 684, 516, -22680, -67690, -13720, -625, 402, -46
1250, 408, 395, 648, -14280, -35420, -11480, -633, 402, -42
1251, 232, 586, 436, 4830, 45430, -4200, -628, 399, -43
1252, -8, 408, 371, 10710, 75390, -1750, -631, 391, -51
1253, -340, 372, 244, 13020, 81550, -1890, -637, 400, -45
1254, -474, 897, 138, 12040, 65030, -3500, -631, 399, -49
1255, -572, 1701, 74, 2520, 32060, -5530, -631, 400, -45
1256, -595, 1718, 150, -3850, 18270, -6230, -633, 399, -45
1257, -485, 1125, 180, -9660, -4270, -6860, -630, 399, -48
1258, -329, 723, 203, -13370, -26530, -7210, -631, 403, -42
1259, -50, 606, 242, -13720, -31010, -6300, -622, 394, -45
1260, 269, 215, 443, -490, 19810, -910, -625, 385, -45
1261, 364, 280, 458, 11480, 58590, 2240, -633, 396, -46
1262, 425, 586, 345, 22750, 98980, 5950, -633, 394, -49
1263, 82, 931, 176, 29680, 131950, 9030, -625, 396, -54
1264, -411, 1153, 103, 30240, 138250, 9030, -624, 396, -51
1265, -916, 1448, 85, 16170, 46900, 910, -633, 402, -48
1266, -629, 1973, 64, 8540, 1750, -1960, -630, 390, -54
1267, -275, 1841, 87, 3080, -10430, -2660, -637, 378, -46
1268, -332, 1193, 50, -280, -7770, -1890, -631, 394, -42
1269, -549, 465, 133, -6020, -31640, -2660, -634, 390, -49
1270, -329, 551, 175, -7770, -45500, -3290, -627, 390, -49
1271, -151, 712, 164, -7770, -39480, -2520, -627, 396, -48
1272, -105, 694, 182, -6510, -19950, -840, -633, 388, -48
1273, -311, 527, 183, -5810, -4620, 280, -628, 397, -43
1274, -456, 764, 208, -7210, -18970, -1890, -628, 388, -52
1275, -123, 1202, 305, -7210, -25900, -2310, -642, 393, -42
1276, -117, 1624, 293, -6090, -16030, -2030, -625, 397, -45
1277, -70, 1440, 346, -4830, -420, -840, -627, 393, -49
1278, -325, 958, 394, -2730, 4830, -770, -630, 396, -54
1279, -148, 809, 266, 2450, 7490, -1400, -631, 396, -57
1280, 44, 828, 225, 5740, 21630, 0, -628, 384, -55
1281, -161, 909, 221, 8820, 35840, 980, -630, 390, -46
1282, -319, 985, 250, 10010, 36820, 1470, -630, 379, -54
1283, -394, 801, 195, 7280, 16030, -630, -625, 394, -51
1284, -407, 652, 170, 5810, 6930, -1470, -636, 387, -46
1285, -223, 540, 199, 5180, 4410, -1050, -630, 387, -58
1286, -208, 505, 192, 5530, 9170, 140, -624, 396, -45
1287, -138, 721, 176, 5810, 15890, 1890, -631, 390, -51
1288, -538, 1273, 218, 910, 8190, 2240, -624, 391, -55
1289, -677, 1177, 248, -3500, -11270, 420, -627, 390, -55
1290, -486, 1076, 289, -7070, -29750, -1260, -627, 394, -46
1291, -135, 871, 342, -7490, -33530, -1750, -627, 388, -54
1292, 189, 595, 423, -3500, -18830, -420, -624, 387, -40
1293, 451, 683, 342, 12810, 44310, 7280, -624, 385, -57
1294, 57, 1204, 211, 18130, 73150, 9870, -627, 393, -46
1295, -653, 1781, 133, 17430, 75530, 9030, -633, 390, -49
1296, -1137, 1823, 50, 10850, 42070, 4620, -636, 393, -54
1297, -582, 1510, 134, -5880, -52780, -5040, -637, 391, -51
1298, -38, 1313, 196, -9520, -59570, -4620, -637, 393, -51
1299, 148, 615, 222, -9240, -37590, -980, -627, 388, -51
1300, 54, 0, 212, -6650, -12530, 2520, -625, 400, -45
1301, -179, -218, 219, -4200, -1820, 4760, -631, 387, -58
1302, -137, 236, 165, -210, -3780, 5880, -636, 394, -60
1303, -192, 881, 149, 1890, 8260, 5880, -624, 393, -57
1304, -396, 1591, 149, 1750, 20020, 5600, -634, 393, -58
1305, -644, 1944, 207, -1610, 14910, 2870, -631, 396, -63
1306, -797, 1881, 320, -6510, -16100, -1960, -625, 396, -58
1307, 71, 2100, 255, -9800, -50890, -5950, -631, 399, -70
1308, 123, 1347, 221, -8190, -21630, -3430, -627, 400, -61
1309, -105, 467, 218, -6370, 560, -1540, -627, 394, -57
1310, -475, 36, 199, -5950, -1470, -1470, -622, 397, -64
1311, -141, 649, 124, -6160, -26320, -2380, -633, 400, -52
1312, -5, 1063, 142, -5390, -10920, -910, -621, 403, -58
1313, -247, 986, 150, -5320, 7560, 280, -631, 400, -52
1314, -561, 692, 162, -7000, 6510, -980, -627, 400, -63
1315, -667, 627, 183, -10010, -14490, -4270, -625, 393, -57
1316, 28, 1140, 314, -11340, -31640, -7070, -627, 400, -55
1317, 196, 1045, 397, -7840, -6580, -5250, -619, 406, -55
1318, 86, 859, 392, -2800, 21980, -2940, -618, 382, -60
1319, -37, 746, 373, 1330, 39130, -2030, -621, 399, -60
1320, -276, 783, 308, 3990, 37310, -2730, -628, 394, -57
1321, -132, 966, 237, 6510, 39340, -2380, -625, 391, -55
1322, -185, 919, 197, 6860, 44240, -1750, -630, 393, -63
1323, -355, 792, 153, 6020, 42490, -2030, -621, 390, -67
1324, -500, 812, 158, 4480, 29190, -3360, -630, 397, -54
1325, -300, 1100, 215, 490, 1260, -5810, -628, 393, -60
1326, -269, 1019, 204, -420, 980, -6090, -628, 400, -60
1327, -308, 921, 206, -770, 3220, -6160, -619, 397, -69
1328, -352, 1006, 188, -1820, 1400, -6650, -625, 400, -54
1329, -454, 1163, 212, -3850, -6580, -7700, -618, 382, -57
1330, -394, 921, 274, -8330, -26250, -10500, -621, 390, -57
1331, -202, 690, 311, -8610, -27090, -10780, -619, 388, -60
1332, -78, 487, 340, -6860, -18270, -10430, -625, 393, -58
1333, 116, 459, 359, -2590, -4970, -8890, -627, 390, -63
1334, 176, 915, 345, 6300, 33530, -5670, -618, 391, -63
1335, -427, 1683, 179, 6300, 38570, -6440, -618, 391, -57
1336, -781, 1462, 156, 2520, 21840, -9450, -622, 387, -73
1337, -875, 1239, 163, -2380, -14700, -14280, -619, 384, -60
1338, -416, 1177, 194, -6230, -45430, -17150, -616, 385, -63
1339, 107, 542, 213, -5740, -23660, -15050, -622, 390, -70
1340, -61, 214, 207, -3360, -1330, -12880, -609, 396, -67
1341, -271, 307, 146, -1960, 4830, -11760, -618, 393, -76
1342, -522, 750, 88, -3010, -1960, -13090, -627, 408, -58
1343, -595, 1089, 93, -5950, -14280, -14910, -613, 391, -64
1344, -599, 1477, 102, -13860, -39480, -19460, -619, 396, -70
1345, -631, 1301, 101, -18550, -53900, -21910, -603, 393, -69
1346, -295, 834, 206, -21700, -73430, -24430, -613, 394, -69
1347, -199, 722, 401, -19390, -87640, -27720, -606, 393, -70
1348, 228, 1016, 410, -1960, -35700, -26390, -609, 391, -63
1349, 278, 642, 371, 6440, 24150, -22820, -610, 391, -60
1350, -48, 171, 252, 13090, 53970, -21210, -607, 396, -69
1351, -401, 194, 123, 15190, 51380, -23240, -606, 393, -67
1352, -528, 541, 46, 13370, 32830, -24710, -604, 393, -64
1353, -147, 955, 75, 9870, 28000, -24500, -598, 394, -69
1354, -38, 735, 83, 9240, 40740, -22680, -600, 390, -67
1355, -140, 583, 95, 8960, 46130, -20580, -597, 396, -61
1356, -194, 663, 107, 8610, 43820, -19950, -588, 393, -70
1357, -223, 889, 78, 8050, 41230, -19250, -595, 396, -66
1358, -382, 1193, 65, 5110, 54110, -18830, -591, 396, -57
1359, -565, 1288, 39, 1050, 55370, -20230, -600, 399, -64
1360, -652, 1293, 53, -4340, 43960, -22260, -594, 396, -61
1361, -676, 1220, 115, -8750, 24920, -24850, -592, 396, -76
1362, -443, 1087, 174, -7700, 630, -25830, -586, 397, -79
1363, 97, 1001, 187, -4130, 7980, -23520, -597, 393, -73
1364, -62, 1220, 104, -2030, 22540, -22540, -588, 405, -73
1365, -417, 1304, 97, -3640, 30030, -23240, -594, 403, -76
1366, -571, 1222, 101, -7700, 25970, -26600, -580, 393, -73
1367, -488, 924, 38, -13720, -2240, -29820, -586, 397, -82
1368, -449, 559, 47, -13650, -12740, -29470, -583, 402, -91
1369, -238, 239, 35, -12810, -18620, -28350, -589, 397, -82
1370, -104, 128, 107, -11970, -20790, -28070, -571, 403, -90
1371, -38, 163, 206, -10290, -21070, -27440, -583, 409, -84
1372, 171, 629, 325, 420, 1330, -26180, -579, 405, -82
1373, 93, 1013, 388, 8050, 32620, -26460, -574, 403, -85
1374, -198, 1249, 267, 14210, 74480, -27510, -567, 405, -81
1375, -232, 1027, 271, 16800, 113750, -29260, -565, 403, -87
1376, -272, 806, 29, 16310, 139300, -30240, -561, 405, -85
1377, -289, 974, -73, 15400, 129850, -28280, -564, 406, -87
1378, -301, 1163, -80, 13790, 122080, -24710, -562, 405, -81
1379, -414, 1295, -53, 10850, 118790, -23940, -561, 403, -76
1380, -650, 1467, -85, 5670, 109480, -24920, -565, 406, -81
1381, -930, 1315, -60, -4970, 61250, -31780, -558, 393, -81
1382, -822, 1008, -22, -7140, 30100, -34720, -553, 403, -73
1383, -674, 621, -2, -7420, 3430, -35420, -559, 397, -76
1384, -429, 302, 99, -5880, -12390, -35910, -553, 402, -75
1385, -285, 304, 136, -2660, -17920, -34510, -541, 408, -79
1386, -95, 808, 121, 6930, 15400, -31290, -549, 402, -70
1387, -46, 907, 136, 10010, 50470, -30170, -552, 403, -81
1388, -339, 953, 25, 10150, 84490, -30590, -544, 393, -72
1389, -397, 1021, -27, 7420, 104230, -31780, -546, 397, -76
1390, -631, 1183, -136, 0, 93170, -34510, -544, 397, -72
1391, -750, 1136, -139, -2100, 68530, -35980, -540, 393, -63
1392, -688, 1361, -110, -2240, 39830, -37170, -540, 394, -72
1393, -707, 1635, -136, -1330, 17500, -39550, -534, 396, -79
1394, -574, 1521, -146, -420, 4200, -41510, -528, 385, -75
1395, -353, 657, -66, -2100, -350, -45360, -522, 391, -79
1396, -280, 363, -42, -4060, -980, -46900, -531, 384, -70
1397, -234, 303, -44, -4970, -350, -47180, -526, 391, -67
1398, -127, 339, -38, -4200, 5110, -46550, -522, 393, -75
1399, -148, 339, -29, -2730, 14420, -45850, -508, 384, -84
1400, -469, 594, -31, -1330, 27650, -49560, -504, 391, -78
1401, -574, 953, -48, -1330, 30730, -54670, -522, 384, -84
1402, -584, 1170, -39, -1330, 35280, -60620, -513, 394, -78
1403, -349, 1026, 22, -910, 41300, -66430, -504, 388, -87
1404, 12, 630, 24, -560, 60690, -70140, -499, 376, -87
1405, -89, 611, -3, 560, 64190, -71890, -495, 382, -87
1406, -145, 606, 1, 1890, 61600, -72800, -489, 379, -81
1407, -348, 590, -61, 4480, 56490, -76090, -481, 382, -87
1408, -356, 592, -24, 7630, 47670, -79170, -477, 379, -73
1409, -455, 705, -47, 17080, 39340, -87920, -468, 373, -84
1410, -379, 588, -85, 22470, 35910, -92540, -471, 384, -82
1411, -487, 399, -132, 26390, 29890, -97580, -465, 370, -73
1412, -307, 309, -81, 27790, 24080, -103670, -459, 372, -78
1413, -380, 365, -130, 27510, 19810, -109270, -450, 367, -84
1414, -269, 477, -212, 27720, 16240, -118440, -451, 361, -82
1415, -217, 454, -167, 28280, 14420, -122710, -438, 367, -79
1416, -456, 491, -191, 28630, 11130, -128590, -427, 360, -75
1417, -443, 666, -251, 28840, 5180, -135170, -421, 360, -76
1418, -397, 802, -292, 29120, -6440, -150080, -412, 354, -79
1419, -391, 610, -266, 28210, -9380, -156940, -409, 346, -79
1420, -300, 423, -250, 26320, -13930, -162190, -400, 345, -79
1421, -363, 371, -319, 24500, -19460, -167650, -393, 334, -94
1422, -361, 347, -333, 23030, -25410, -171990, -382, 334, -96
1423, -432, 151, -320, 19880, -30100, -181510, -373, 327, -105
1424, -398, 81, -365, 18340, -28210, -186620, -370, 313, -85
1425, -393, 46, -449, 17430, -22820, -191310, -352, 312, -100
1426, -337, 13, -527, 17640, -14070, -196000, -351, 301, -93
1427, -537, -34, -624, 18970, 28070, -210630, -333, 292, -105
1428, -2033, 170, -886, 22750, 70980, -224560, -324, 280, -100
1429, -1000, 74, -592, 23380, 102550, -237370, -313, 271, -109
1430, -565, -146, -373, 23730, 112000, -248640, -309, 253, -105
1431, -732, 7, -367, 23800, 106190, -250740, -291, 244, -105
1432, 131, -170, -212, 27370, 96180, -259210, -285, 231, -102
1433, 1824, -3997, -187, 60270, 294350, 59010, -279, 220, -99
1434, -3997, 2844, -2448, -268450, 1603140, 1644370, -309, 234, 7
1435, -3997, 1256, -3997, -36470, -782460, 874300, -385, 304, 27
1436, -3997, 3997, -2169, -19180, 434490, 784630, -412, 330, 61
1437, -1587, 3443, -1594, -8330, 63630, -239890, -409, 342, 13
1438, -1188, -3087, -677, -35490, -354060, -512470, -400, 334, 30
1439, 3166, 2598, 1820, -9240, 126560, -512610, -363, 298, -3
1440, 1061, -3901, -3368, 6860, -232470, 52990, -363, 298, 0
1441, 1199, 3997, 3997, 13720, 432880, 44870, -360, 292, -1
1442, 1831, 1399, 3739, 38500, -893620, -70210, -357, 294, -1
1443, -1570, -518, -2170, -48160, 756560, 71260, -351, 294, -1
1444, 637, 929, 516, 51310, -714210, -114310, -352, 282, -7
1445, -560, 1439, -327, -32200, 523810, 54880, -358, 295, -1
1446, -149, 1628, 1036, 5390, 362110, 26950, -343, 297, -7
1447, -3997, 627, -1278, 19530, 179690, 18970, -343, 289, 13
1448, -1718, 589, -1022, 11900, -153160, -3080, -352, 294, 10
1449, 650, 533, 492, 11900, -114730, -12250, -355, 298, 3
1450, -1131, 753, -1216, -8540, 196490, 19600, -360, 288, 18
1451, -1227, 280, -187, -10920, 117600, 17710, -352, 288, 16
1452, -1517, 544, -484, -4480, -70910, -10780, -354, 292, 15
1453, -465, 620, -351, -8190, -49700, -6650, -360, 295, 3
1454, -648, 441, -139, -9240, 11690, 2170, -355, 297, 0
1455, -832, 160, -21, -5740, 7910, 770, -352, 288, 0
1456, -1095, 323, -243, -3570, -10990, -1470, -355, 286, 12
1457, -886, 453, -389, -3150, -16800, -2030, -354, 292, 3
1458, -790, 336, -6, 490, 4760, -70, -358, 289, 0
1459, -888, 304, -300, 1610, -840, -490, -352, 289, 1
1460, -1005, 478, -564, 210, 3710, 490, -355, 283, 0
1461, -865, 430, 56, 2030, 6230, 910, -358, 292, 3
1462, -1169, 484, -645, 350, 3430, -210, -357, 292, 6
1463, -710, 272, 240, 1610, -8470, -770, -349, 286, 6
1464, -951, 447, -557, -2240, 1330, 0, -345, 289, 4
1465, -1158, 492, -585, -2310, 11480, 700, -349, 288, -1
1466, -875, 252, 42, 1120, -12250, -1540, -354, 298, -4
1467, -938, 375, -395, -840, 2660, -140, -357, 291, -4
1468, -634, 322, 69, 1330, -11690, -980, -343, 285, 7
1469, -969, 457, -403, 1750, -5390, -770, -352, 285, 1
1470, -1178, 384, -470, -840, 13650, 1260, -348, 295, 12
1471, -712, 359, -16, 2310, -24920, -3080, -351, 292, 1
1472, -880, 417, -284, -1890, 17710, 2100, -352, 292, 1
1473, -775, 394, -108, 700, -14280, -1610, -352, 286, -1
1474, -979, 364, -259, 1260, -18550, -2520, -348, 289, 3
1475, -871, 355, -167, -700, 7140, 770, -352, 288, -4
1476, -751, 404, -180, 1120, -12530, -1680, -358, 289, 4
1477, -901, 357, -152, -1190, 17430, 2310, -354, 291, -4
1478, -957, 406, -296, 910, -8820, -1330, -355, 297, 1
1479, -846, 414, -277, 1400, -19600, -2730, -352, 291, 1
1480, -802, 355, -60, -980, 13720, 1750, -351, 294, 3
1481, -913, 408, -317, 280, -8470, -1120, -354, 297, 7
1482, -911, 352, -98, -840, 11060, 1470, -346, 297, 3
1483, -815, 347, -55, 210, 140, 0, -346, 289, 6
1484, -887, 399, -307, 210, -2520, -560, -355, 297, 9
1485, -819, 357, -66, -140, 3990, 700, -357, 294, 3
1486, -999, 408, -354, -140, 1260, 0, -358, 298, 4
1487, -917, 371, -132, 140, 1120, 70, -358, 288, 1
1488, -771, 369, -64, 210, -1260, -210, -355, 297, 9
1489, -951, 389, -305, -560, 4200, 490, -349, 289, 4
1490, -856, 376, -125, 210, -2170, -280, -357, 295, 6
1491, -1032, 384, -332, -490, 5810, 560, -355, 288, 7
1492, -825, 375, -129, 910, -9450, -1260, -361, 289, 4
1493, -834, 386, -154, 420, -5460, -700, -346, 289, 4
1494, -975, 378, -260, -700, 8960, 1120, -348, 288, -1
1495, -909, 390, -212, 560, -7140, -1050, -358, 288, -9
1496, -925, 370, -221, -350, 4620, 490, -349, 285, 10
1497, -915, 368, -202, -700, 8190, 1120, -357, 292, 0
1498, -902, 392, -229, 420, -5600, -840, -351, 292, 9
1499, -955, 371, -215, -490, 6930, 840, -352, 291, 3
1500, -879, 391, -227, 560, -8470, -1260, -357, 295, -4
1501, -876, 368, -162, -420, 6720, 840, -349, 288, 0
1502, -913, 372, -177, -490, 6160, 770, -355, 292, 4
1503, -938, 393, -270, 280, -4690, -770, -352, 288, 1
1504, -875, 370, -156, -140, 2660, 280, -358, 294, 9
1505, -899, 388, -248, 210, -2940, -560, -354, 292, 9
1506, -876, 373, -158, -280, 3570, 490, -363, 285, 0
1507, -892, 375, -169, 0, 1400, 140, -352, 282, -3
1508, -917, 384, -251, 140, -1890, -420, -363, 300, 1
1509, -860, 378, -156, 0, 1120, 70, -360, 291, 0
1510, -932, 383, -256, -70, 350, -70, -354, 289, 4
1511, -940, 381, -256, -70, 350, -70, -357, 291, 7
1512, -862, 381, -166, 70, -1400, -280, -348, 295, 18
1513, -923, 379, -240, -140, 1890, 140, -352, 282, -4
1514, -878, 382, -181, 140, -1190, -210, -351, 289, 0
1515, -937, 380, -242, -210, 2240, 210, -349, 291, 4
1516, -918, 378, -227, -140, 2170, 210, -358, 300, 12
1517, -877, 384, -191, 140, -1960, -350, -358, 294, -7
1518, -924, 377, -226, -280, 2800, 280, -360, 294, 4
1519, -889, 384, -202, 140, -2380, -490, -349, 295, -4
1520, -916, 377, -218, -210, 2450, 210, -349, 292, 9
1521, -914, 377, -213, -210, 2730, 280, -343, 288, 4
1522, -896, 385, -212, 140, -2170, -420, -357, 294, 7
1523, -911, 378, -211, -140, 2380, 210, -355, 289, 10
1524, -894, 385, -213, 210, -2170, -420, -351, 288, 12
1525, -899, 384, -217, 140, -1750, -350, -345, 298, 4
1526, -904, 377, -203, -70, 1890, 210, -361, 286, 4
1527, -902, 383, -218, 140, -1540, -350, -352, 292, 3
1528, -900, 378, -200, -70, 1610, 140, -346, 289, -1
1529, -905, 383, -219, 70, -1120, -280, -351, 291, 1
1530, -907, 383, -222, 70, -840, -210, -358, 291, 3
1531, -897, 380, -201, 0, 980, 0, -352, 292, 6
1532, -907, 382, -221, 0, -560, -210, -354, 286, 6
1533, -896, 380, -199, -140, 700, 0, -354, 285, 6
1534, -908, 381, -220, 0, 490, 0, -357, 289, 16
1535, -908, 380, -219, 70, -140, -140, -352, 294, 13
1536, -896, 381, -201, 0, 350, -70, -354, 279, 4
1537, -909, 380, -219, 0, 70, -70, -358, 292, -4
1538, -897, 382, -203, 0, 210, -70, -355, 291, -4
1539, -897, 381, -204, 0, 70, -70, -358, 292, 7
1540, -907, 380, -216, 0, 210, -70, -354, 283, 1
1541, -895, 381, -203, 0, -70, -140, -358, 286, 7
1542, -907, 380, -215, 0, 420, -70, -348, 289, 7
1543, -898, 381, -204, 70, -70, -140, -354, 292, -1
1544, -898, 381, -207, 0, -210, -140, -367, 292, 0
1545, -907, 381, -214, -70, 490, 0, -357, 295, 3
1546, -899, 381, -208, 70, -210, -70, -358, 280, 3
1547, -906, 379, -213, 0, 420, 0, -345, 301, 9
1548, -899, 380, -208, -70, 420, 0, -342, 285, 1
1549, -899, 381, -209, 70, -140, -210, -348, 291, 3
1550, -905, 380, -212, 0, 490, -70, -360, 294, 3
1551, -900, 381, -209, 70, -140, -140, -348, 288, 0
1552, -904, 380, -212, 70, 420, -70, -358, 289, 6
1553, -903, 380, -210, 0, 420, -70, -358, 285, 0
1554, -900, 381, -210, 0, -70, -70, -352, 288, 7
1555, -903, 381, -210, -140, 420, -70, -354, 286, 7
1556, -901, 381, -210, 70, -140, -70, -357, 301, 7
1557, -903, 380, -210, 0, 350, -70, -355, 300, 1
1558, -903, 381, -210, -70, 350, -70, -355, 303, -1
1559, -901, 381, -209, 0, -70, -140, -358, 285, 12
1560, -902, 381, -210, -70, 350, 0, -360, 294, 15
1561, -902, 380, -210, 0, 0, -140, -355, 286, 0
1562, -903, 380, -209, 70, 0, -140, -361, 292, 6
1563, -902, 381, -211, -70, 210, -70, -351, 286, 0
1564, -902, 381, -209, 0, 70, -70, -360, 300, 10
1565, -902, 381, -209, -70, 280, -70, -355, 286, 6
1566, -902, 381, -211, 0, 0, -70, -345, 304, 10
1567, -903, 380, -210, 0, 140, -140, -345, 282, 6
1568, -902, 380, -210, -70, 210, -70, -351, 294, 9
1569, -901, 381, -210, 0, 70, -140, -348, 283, 3
1570, -901, 381, -209, 0, 210, -70, -351, 294, 12
1571, -903, 380, -210, 0, 140, -70, -352, 297, 6
1572, -902, 381, -211, 0, 140, -70, -346, 295, 6
1573, -902, 381, -210, 0, 210, -70, -346, 285, 4
1574, -902, 380, -210, 0, 140, -70, -367, 297, 1
1575, -902, 381, -210, 0, 140, -70, -352, 288, 6
1576, -902, 380, -210, 0, 140, -70, -351, 289, 10
1577, -903, 381, -210, 0, 140, -140, -354, 289, 6
1578, -902, 381, -209, -70, 210, -70, -349, 289, 1
1579, -903, 380, -211, 0, 210, -70, -355, 292, 4
1580, -902, 381, -210, 0, 140, -70, -351, 295, 7
1581, -901, 381, -210, 0, 140, -70, -351, 289, 9
1582, -903, 380, -209, 0, 140, -70, -358, 295, 6
1583, -902, 381, -209, 0, 140, -70, -361, 289, -1
1584, -902, 381, -210, 0, 140, -70, -363, 285, 7
1585, -902, 380, -210, 0, 140, -70, -349, 285, 4
1586, -902, 381, -210, 0, 140, -70, -352, 297, 7
1587, -902, 381, -210, 0, 140, -70, -354, 297, 4
1588, -902, 381, -209, 70, 140, -70, -352, 297, 7
1589, -902, 380, -210, -70, 210, -70, -348, 283, 1
1590, -902, 380, -211, 70, 140, -70, -351, 285, 9
1591, -902, 381, -210, 70, 210, -70, -354, 283, 7
1592, -902, 381, -211, 0, 140, -70, -355, 285, 9
1593, -899, 380, -210, -70, 140, -70, -352, 292, 6
1594, -904, 381, -211, 0, 350, -70, -349, 291, 9
1595, -901, 380, -210, 0, 350, -70, -352, 297, 0
1596, -902, 381, -210, 0, 70, -70, -351, 288, 10
1597, -903, 381, -210, -70, 210, -70, -355, 291, 1
1598, -903, 381, -211, 0, 140, -70, -357, 289, 10
1599, -902, 381, -210, 0, 70, -70, -349, 291, -1
1600, -903, 380, -210, 0, 70, -70, -355, 295, 1
1601, -901, 380, -209, 0, 210, -70, -357, 292, -7
1602, -901, 381, -209, 0, 140, -70, -354, 286, 10
1603, -902, 381, -210, -70, 210, -70, -348, 292, 12
1604, -903, 381, -210, 0, 210, -70, -354, 286, 7
1605, -902, 381, -211, 0, 140, -70, -349, 286, 3
1606, -902, 381, -211, 70, 140, -70, -354, 298, 13
1607, -903, 381, -211, 0, 140, -70, -351, 280, 6
1608, -902, 380, -210, 0, 210, -70, -349, 300, 4
1609, -902, 380, -208, 0, 140, -70, -342, 291, 4
1610, -903, 380, -212, 0, 140, 0, -354, 285, 10
1611, -900, 381, -208, 70, 140, -70, -355, 292, 9
1612, -903, 381, -211, 0, 280, -70, -349, 289, 9
1613, -903, 381, -212, 0, 140, -70, -361, 285, 6
1614, -902, 381, -211, 70, 210, -70, -343, 282, 12
1615, -902, 382, -209, 70, 140, -70, -351, 289, 6
1616, -901, 380, -210, 0, 70, -70, -348, 279, 12
1617, -903, 381, -207, 0, 280, -70, -360, 292, 1
1618, -896, 380, -206, 70, 0, -70, -351, 289, 7
1619, -906, 382, -211, -70, 630, -70, -357, 295, -4
1620, -901, 380, -212, 70, -280, -140, -355, 286, 9
1621, -899, 381, -208, -70, 420, -70, -370, 297, 7
1622, -904, 381, -210, 0, 140, -70, -354, 292, 7
1623, -903, 380, -210, 70, 210, -70, -355, 289, 16
1624, -901, 382, -209, 0, 140, -70, -345, 291, 9
1625, -903, 381, -212, 0, 210, -70, -348, 289, 1
1626, -901, 381, -210, 0, 140, -70, -352, 289, 7
1627, -903, 380, -210, 0, 70, -70, -349, 303, 4
1628, -902, 380, -210, 0, 210, -140, -348, 285, 4
1629, -902, 380, -210, 0, 140, -140, -352, 283, 7
1630, -902, 381, -211, 0, 210, -70, -351, 292, 1
1631, -902, 381, -209, 0, 140, -70, -354, 282, 3
1632, -902, 381, -210, -70, 140, -70, -346, 288, 4
1633, -901, 380, -210, -70, 140, -70, -348, 295, 3
1634, -902, 381, -210, 0, 140, -70, -348, 291, 7
1635, -901, 380, -210, 0, 140, -70, -357, 289, 0
1636, -901, 380, -210, 70, 140, -70, -352, 294, -1
1637, -902, 381, -210, 0, 210, -70, -355, 292, 4
1638, -902, 381, -211, -70, 140, -70, -361, 295, 7
1639, -902, 380, -211, -70, 140, -70, -358, 291, 6
1640, -902, 381, -210, 0, 70, -70, -363, 285, 12
1641, -902, 381, -210, -70, 140, -70, -351, 292, 0
1642, -902, 380, -210, 0, 210, -70, -351, 285, 4
1643, -902, 381, -211, 0, 140, -70, -351, 283, 6
1644, -902, 381, -210, 0, 210, -70, -346, 289, 13
1645, -902, 380, -210, 0, 210, -70, -354, 288, 7
1646, -903, 381, -210, 70, 140, -70, -352, 288, 6
1647, -902, 380, -210, 0, 210, -70, -358, 297, 9
1648, -902, 380, -210, 0, 210, -70, -360, 297, 7
1649, -902, 381, -210, 70, 140, -70, -351, 292, 0
1650, -902, 381, -210, 0, 140, -70, -355, 291, 18
1651, -902, 380, -209, 0, 210, -70, -352, 288, 9
1652, -902, 381, -211, 0, 140, -70, -352, 288, 6
1653, -903, 381, -209, 0, 70, -70, -348, 289, 10
1654, -902, 381, -211, -70, 140, -70, -352, 300, 1
1655, -902, 381, -210, -70, 140, -70, -352, 283, -1
1656, -902, 381, -210, 0, 210, -70, -351, 291, 10
1657, -902, 381, -211, 0, 140, -70, -354, 289, -4
1658, -902, 381, -210, 0, 140, -70, -351, 285, 15
1659, -902, 381, -210, 0, 140, -70, -349, 282, -3
1660, -902, 380, -210, 70, 210, -70, -348, 288, 6
1661, -902, 381, -211, 70, 140, -70, -357, 294, 0
1662, -902, 381, -209, 0, 140, -70, -358, 294, 7
1663, -902, 380, -209, 70, 140, -70, -346, 286, 4
1664, -902, 380, -210, 70, 140, -70, -355, 294, 1
1665, -902, 381, -210, 0, 210, -70, -357, 289, -3
1666, -902, 381, -210, 0, 140, -70, -351, 289, -1
1667, -902, 381, -210, 70, 210, -70, -358, 292, -4
1668, -902, 381, -210, 0, 140, -70, -358, 289, 10
1669, -902, 381, -210, 0, 210, -70, -352, 277, 7
1670, -902, 380, -210, 0, 210, -70, -349, 291, 9
1671, -902, 381, -209, 0, 140, -70, -358, 304, -1
1672, -902, 381, -211, 70, 210, -70, -348, 292, 7
1673, -902, 381, -210, 0, 140, -70, -352, 288, 9
1674, -902, 381, -209, -70, 140, -70, -352, 292, 1
1675, -902, 380, -209, 70, 140, -140, -354, 289, -1
1676, -903, 381, -210, 0, 210, -70, -354, 286, 9
1677, -902, 381, -210, -70, 140, -70, -346, 295, 9
1678, -902, 381, -209, 0, 140, -70, -366, 292, 3
1679, -901, 381, -210, 0, 140, -70, -360, 292, 0
1680, -902, 381, -211, 0, 140, -70, -345, 294, 9
1681, -903, 381, -210, 0, 140, -70, -348, 286, 0
1682, -902, 381, -211, 0, 210, -70, -357, 289, 7
1683, -902, 381, -210, 0, 210, -70, -352, 288, 1
1684, -902, 381, -211, 0, 140, -70, -361, 297, 6
1685, -902, 380, -209, 0, 140, -70, -349, 289, -1
1686, -903, 380, -209, 0, 140, -70, -351, 283, 12
1687, -902, 381, -210, 70, 70, 0, -348, 289, 7
1688, -901, 381, -210, 0, 210, -70, -348, 289, 6
1689, -902, 381, -210, 0, 210, -70, -345, 291, 0
1690, -905, 381, -211, 0, 140, -70, -352, 295, 4
1691, -903, 381, -211, 0, 70, -70, -351, 288, 0
1692, -900, 381, -208, 0, 140, -70, -345, 283, 3
1693, -904, 380, -210, 0, 210, -140, -357, 289, 4
1694, -904, 381, -210, 0, 70, -70, -357, 294, 6
1695, -901, 381, -209, 0, 140, -70, -351, 286, 0
1696, -901, 381, -210, 0, 210, -70, -358, 295, 4
1697, -903, 381, -211, 0, 140, -70, -360, 297, 4
1698, -901, 381, -210, 0, 210, -70, -348, 288, 1
1699, -902, 381, -211, -70, 140, -70, -354, 292, 9
1700, -902, 380, -210, -140, 210, -70, -352, 295, -6
1701, -904, 381, -211, -70, 210, -70, -354, 291, 0
1702, -901, 381, -210, 0, 210, -70, -352, 289, 9
1703, -902, 380, -209, 0, 140, -70, -348, 289, 3
1704, -902, 380, -209, 0, 70, -70, -357, 291, 10
1705, -902, 381, -209, 0, 140, -70, -351, 291, 9
1706, -902, 380, -209, 0, 140, -70, -346, 282, 7
1707, -902, 381, -211, 0, 210, -70, -351, 295, 3
1708, -903, 380, -209, -70, 140, -70, -348, 289, 4
1709, -901, 381, -209, 0, 140, -70, -357, 285, -4
1710, -902, 381, -211, 0, 140, -70, -363, 294, -7
1711, -903, 381, -210, -70, 140, -70, -351, 291, -1
1712, -902, 381, -210, 0, 210, -70, -351, 291, 1
1713, -902, 381, -210, 0, 210, -70, -346, 291, 1
1714, -902, 381, -210, -70, 210, -70, -358, 280, 7
1715, -903, 381, -210, -70, 210, -70, -361, 294, 3
1716, -902, 381, -211, 0, 210, -70, -360, 289, 7
1717, -902, 381, -211, 0, 140, -70, -357, 292, -7
1718, -902, 381, -211, 0, 210, -70, -354, 283, 4
1719, -902, 381, -210, 0, 140, -70, -349, 295, -4
1720, -902, 381, -210, -70, 140, -70, -354, 292, -7
1721, -903, 380, -210, 0, 70, -70, -358, 291, 1
1722, -902, 381, -210, 0, 70, -70, -352, 291, 4
1723, -901, 381, -211, -70, 210, -70, -360, 283, 4
1724, -902, 381, -211, 0, 70, -70, -351, 291, -9
1725, -902, 380, -211, 0, 210, -70, -348, 291, -3
1726, -902, 381, -210, 70, 140, -70, -354, 282, -3
1727, -903, 381, -211, -70, 210, -70, -352, 289, 0
1728, -902, 381, -211, -70, 70, -70, -358, 285, 0
1729, -902, 380, -211, 0, 70, -70, -352, 292, 3
1730, -902, 381, -209, 0, 210, -70, -345, 294, 4
1731, -902, 381, -210, 0, 140, -70, -357, 289, 9
1732, -902, 380, -210, 0, 140, -140, -358, 297, -1
1733, -902, 380, -210, 0, 210, 0, -355, 297, 4
1734, -902, 380, -209, 0, 140, -70, -346, 297, 10
1735, -902, 381, -210, -70, 140, -70, -349, 291, 1
1736, -902, 381, -211, 0, 140, -70, -352, 289, 7
1737, -902, 380, -210, 0, 140, -70, -355, 292, 0
1738, -902, 381, -210, 70, 140, -70, -352, 295, -1
1739, -902, 380, -210, 0, 70, -70, -360, 286, 4
1740, -902, 380, -210, 70, 210, -70, -364, 292, 9
1741, -902, 381, -210, 0, 210, -70, -346, 289, 6
1742, -903, 381, -210, 70, 140, -70, -346, 288, 3
1743, -902, 381, -210, -70, 210, -70, -357, 291, -3
1744, -902, 381, -210, 0, 210, -70, -349, 295, 10
1745, -902, 381, -210, 0, 210, -70, -352, 295, 4
1746, -902, 381, -210, 0, 140, -70, -357, 297, 10
1747, -901, 380, -210, 0, 140, -70, -349, 289, -1
1748, -902, 381, -211, 0, 140, -70, -358, 294, 1
1749, -902, 380, -209, -70, 140, -70, -354, 289, -1
1750, -903, 381, -211, 0, 210, -70, -358, 288, 7
1751, -902, 381, -210, 0, 140, -70, -357, 294, 1
1752, -903, 380, -210, 70, 140, -70, -351, 291, 6
1753, -902, 381, -211, 0, 140, -70, -352, 300, -4
1754, -902, 380, -210, 0, 140, -70, -351, 285, 6
1755, -902, 380, -210, 0, 140, -70, -351, 286, 6
1756, -902, 380, -209, 0, 140, -70, -358, 297, 6
1757, -902, 381, -209, -70, 210, -70, -348, 294, 4
1758, -902, 380, -209, 0, 140, -70, -357, 289, 12
1759, -902, 381, -210, 0, 140, -70, -354, 283, 4
1760, -902, 380, -210, 0, 140, -70, -340, 286, 3
1761, -902, 380, -210, 0, 210, -70, -349, 289, 4
1762, -903, 381, -210, 0, 140, -70, -349, 294, 1
1763, -902, 380, -211, 0, 140, -70, -351, 288, 3
1764, -902, 381, -211, -70, 210, -70, -352, 286, 3
1765, -902, 381, -211, 0, 140, -70, -352, 289, 1
1766, -903, 381, -209, 70, 140, -140, -352, 294, 1
1767, -902, 380, -209, 0, 140, -70, -352, 280, -4
1768, -902, 380, -211, 0, 210, -70, -351, 294, 4
1769, -902, 381, -210, 0, 140, -70, -352, 298, 4
1770, -902, 381, -208, 0, 140, -70, -360, 286, -4
1771, -902, 380, -211, -70, 70, -140, -346, 292, 4
1772, -902, 381, -210, 0, 70, -70, -354, 291, 6
1773, -903, 381, -210, 70, 140, -70, -351, 291, 3
1774, -903, 380, -210, -70, 140, -70, -360, 292, 13
1775, -902, 381, -210, 0, 210, -70, -346, 288, 12
1776, -901, 381, -210, 0, 210, -70, -349, 292, 3
1777, -902, 380, -209, 0, 140, -70, -343, 295, 7
1778, -902, 381, -211, 0, 210, -140, -351, 297, 12
1779, -903, 380, -210, 0, 70, -70, -351, 292, 0
1780, -902, 380, -210, 0, 140, -70, -349, 282, -12
1781, -902, 380, -209, 0, 140, -70, -352, 289, 12
1782, -903, 381, -210, 0, 210, -70, -358, 292, 3
1783, -902, 381, -210, 0, 140, -70, -351, 279, 1
1784, -902, 381, -211, 0, 140, -70, -349, 298, 7
1785, -902, 380, -211, 0, 140, -70, -354, 285, 4
1786, -902, 380, -210, 0, 140, -70, -351, 289, 4
1787, -902, 380, -211, 0, 140, -70, -352, 291, 7
1788, -901, 381, -210, 0, 140, -70, -357, 297, 6
1789, -903, 380, -210, 0, 140, -70, -348, 288, 4
1790, -902, 380, -210, 0, 210, -70, -355, 294, 12
1791, -903, 381, -210, 0, 140, -70, -357, 295, 0
1792, -902, 381, -210, 0, 140, -70, -360, 289, 9
1793, -902, 380, -210, 0, 210, -70, -345, 291, 6
1794, -902, 380, -210, 70, 210, -70, -345, 289, 9
1795, -901, 380, -210, -70, 70, -70, -357, 291, -1
1796, -903, 381, -210, 70, 280, -70, -355, 282, 9
1797, -901, 379, -209, 70, 70, -70, -351, 297, 3
1798, -907, 381, -213, 70, 490, -70, -358, 289, 7
1799, -903, 381, -211, 70, -140, -140, -358, 298, 9
1800, -905, 381, -211, 0, 210, -70, -351, 294, 7
1801, -902, 379, -210, 0, 70, -140, -358, 292, 4
1802, -902, 381, -210, 0, 140, -70, -352, 286, 6
1803, -902, 381, -209, 0, 210, -70, -364, 295, 1
1804, -902, 381, -212, 0, 140, -70, -348, 283, 9
1805, -904, 381, -209, -70, 280, -70, -357, 288, 3
1806, -901, 381, -209, -70, -140, -140, -346, 294, 7
1807, -901, 380, -210, 0, 350, -70, -346, 295, 6
1808, -902, 380, -210, 0, 210, -70, -360, 294, 3
1809, -902, 380, -210, 0, 140, -70, -360, 291, 15
1810, -903, 382, -210, 0, 210, -70, -360, 297, 12
1811, -903, 380, -209, 0, 70, -140, -357, 294, 3
1812, -902, 380, -211, -70, 140, -70, -355, 294, 9
1813, -902, 381, -211, 0, 140, -70, -354, 289, 3
1814, -901, 380, -210, 70, 140, -140, -351, 283, 15
1815, -903, 381, -211, 0, 210, -70, -358, 294, 15
1816, -902, 380, -210, -70, 210, -140, -352, 288, 3
1817, -903, 381, -210, -70, 210, -70, -352, 289, 6
1818, -901, 380, -210, 0, 140, -70, -352, 286, 6
1819, -902, 381, -210, 70, 140, -70, -354, 286, 7
1820, -902, 380, -211, 0, 210, -70, -358, 286, -1
1821, -902, 381, -210, 70, 140, -70, -348, 280, -4
1822, -901, 380, -210, 0, 140, -70, -357, 303, 9
1823, -902, 380, -210, 0, 210, -70, -348, 289, 7
1824, -902, 381, -210, 0, 140, -70, -352, 298, 0
1825, -902, 380, -211, 0, 210, -70, -346, 294, 10
1826, -902, 380, -210, 0, 280, -70, -354, 289, 9
1827, -902, 380, -209, -70, 140, -70, -354, 295, 0
1828, -903, 381, -210, -70, 140, -70, -354, 288, 6
1829, -902, 381, -211, 0, 140, 0, -349, 283, 10
1830, -901, 381, -210, 70, 140, -70, -355, 298, 6
1831, -902, 381, -211, 0, 280, -70, -351, 294, 6
1832, -904, 381, -211, -70, 280, -70, -351, 292, 3
1833, -902, 381, -208, 0, 0, -140, -355, 292, 0
1834, -902, 381, -210, 0, 140, -70, -354, 294, 9
1835, -902, 381, -210, 0, 280, -70, -349, 286, 9
1836, -903, 381, -209, 0, 210, -70, -351, 289, 1
1837, -901, 381, -211, 0, 140, 0, -358, 297, 3
1838, -901, 381, -209, -70, 210, -70, -352, 294, 4
1839, -903, 381, -212, 0, 70, -70, -354, 291, 1
1840, -901, 380, -210, 0, 70, -70, -358, 286, -6
1841, -902, 381, -209, 0, 140, -70, -352, 288, 6
1842, -903, 380, -210, -70, 210, -70, -358, 292, 4
1843, -902, 381, -210, 0, 210, -70, -349, 286, -6
1844, -902, 381, -210, 0, 210, -70, -354, 285, 12
1845, -902, 381, -209, -70, 140, -140, -358, 297, 0
1846, -902, 380, -210, 0, 140, -70, -346, 294, 16
1847, -903, 380, -209, 0, 140, -70, -357, 297, 4
1848, -903, 381, -210, 0, 140, -70, -357, 291, -6
1849, -903, 380, -209, 0, 70, -70, -349, 289, 4
1850, -902, 380, -210, 0, 210, -70, -358, 298, 3
1851, -902, 381, -210, 0, 140, -70, -351, 288, -6
1852, -902, 381, -209, 0, 140, -70, -357, 295, 4
1853, -902, 380, -211, 0, 140, -70, -354, 289, -4
1854, -901, 380, -209, 70, 210, -140, -349, 292, 6
1855, -902, 381, -210, -70, 140, -70, -354, 301, -1
1856, -903, 380, -211, 0, 140, -70, -357, 297, 4
1857, -902, 381, -211, 0, 140, -70, -360, 288, 1
1858, -902, 381, -210, -70, 140, -70, -354, 291, 9
1859, -902, 381, -210, 0, 140, -70, -351, 286, 6
1860, -901, 379, -211, 70, 0, -70, -357, 289, 10
1861, -899, 379, -208, 70, 350, -70, -355, 292, -3
1862, -906, 382, -213, 0, 210, -70, -352, 288, 6
1863, -903, 382, -211, 0, 0, -70, -352, 288, 3
1864, -900, 380, -208, 0, 140, -70, -352, 292, 1
1865, -900, 379, -209, 0, 0, -70, -364, 298, 4
1866, -901, 381, -209, 0, 280, -70, -352, 288, 3
1867, -903, 380, -210, 0, 140, -70, -351, 291, 1
1868, -901, 380, -209, 0, 280, -70, -354, 292, 7
1869, -903, 381, -211, -70, 140, -70, -351, 289, -1
1870, -902, 381, -210, 0, 70, -140, -357, 294, 13
1871, -902, 381, -210, 0, 140, -70, -355, 294, -3
1872, -902, 381, -211, 0, 210, -70, -351, 300, 0
1873, -902, 380, -208, 0, 140, -70, -351, 289, 6
1874, -902, 380, -211, -70, 140, -70, -354, 291, 10
1875, -902, 380, -210, 0, 140, -70, -346, 295, 9
1876, -903, 381, -210, 0, 140, -70, -357, 291, 6
1877, -901, 380, -210, 0, -70, -140, -357, 286, 3
1878, -902, 380, -211, 0, 420, -70, -348, 289, 4
1879, -902, 381, -209, 0, 140, -70, -357, 292, -4
1880, -902, 381, -211, 70, 70, -70, -349, 283, 1
1881, -902, 380, -210, 70, 350, -70, -358, 294, 1
1882, -903, 380, -209, -140, 70, -70, -349, 297, -13
1883, -901, 381, -209, 0, 140, -70, -358, 292, 3
1884, -900, 380, -209, 0, 210, -70, -354, 291, 4
1885, -903, 380, -210, 0, 210, -70, -345, 292, 3
1886, -901, 380, -210, 0, 140, -140, -351, 292, 3
1887, -901, 381, -209, -70, 210, -70, -358, 295, 0
1888, -903, 380, -209, 0, 210, -70, -354, 286, 3
1889, -903, 381, -210, 0, 140, -70, -357, 300, 6
1890, -903, 381, -210, 0, 140, -70, -345, 294, 4
1891, -903, 381, -210, 0, 140, -70, -355, 288, 6
1892, -903, 381, -209, 0, 140, -70, -357, 289, -3
1893, -902, 381, -210, 0, 140, -70, -364, 294, 10
1894, -902, 381, -211, 70, 70, -70, -355, 286, 9
1895, -902, 381, -211, 0, 140, -70, -346, 303, 4
1896, -902, 380, -209, -70, 140, -140, -345, 292, 9
1897, -902, 380, -211, 70, 140, -70, -352, 285, 4
1898, -902, 382, -209, 0, 210, -70, -345, 283, 6
1899, -903, 381, -209, 0, 210, -70, -351, 292, 7
1900, -902, 381, -211, 70, 140, -70, -354, 285, 6
1901, -902, 380, -209, 0, 140, -70, -352, 291, -1
1902, -902, 380, -210, 0, 140, 0, -352, 294, 0
1903, -903, 380, -211, -70, 140, -70, -358, 289, -1
1904, -902, 380, -209, 0, 70, -70, -343, 298, 4
1905, -902, 381, -210, 0, 140, -70, -355, 289, 9
1906, -903, 381, -209, -70, 210, -70, -357, 282, 6
1907, -902, 381, -211, 0, 350, -70, -357, 298, 0
1908, -903, 381, -211, 0, 140, -70, -346, 292, 1
1909, -903, 381, -210, 0, 140, -70, -357, 294, 6
1910, -902, 380, -212, 0, 140, -70, -354, 289, 13
1911, -902, 380, -210, -70, 70, -70, -345, 288, 0
1912, -902, 380, -211, 0, 280, 0, -348, 301, 10
1913, -903, 381, -209, -70, 140, -70, -354, 291, 6
1914, -902, 380, -209, 0, 210, -70, -354, 289, 15
1915, -903, 380, -211, 0, 140, -70, -352, 280, -3
1916, -902, 380, -210, 0, 210, -70, -351, 285, 4
1917, -902, 381, -210, 0, 210, -70, -354, 291, 4
1918, -902, 381, -209, 0, 140, -70, -351, 294, 3
1919, -902, 381, -210, 70, 210, -140, -351, 294, 3
1920, -902, 381, -210, 0, 70, -70, -352, 288, 0
1921, -902, 380, -209, 0, 210, -70, -354, 285, 7
1922, -902, 380, -209, 0, 210, -70, -354, 289, 1
1923, -901, 381, -210, -70, 210, -70, -352, 288, -1
1924, -902, 380, -211, 0, 140, -70, -355, 297, -4
1925, -902, 381, -210, -70, 210, -70, -357, 286, 9
1926, -902, 381, -211, 0, 140, -70, -351, 292, 6
1927, -902, 380, -211, 0, 140, -140, -361, 289, -1
1928, -902, 380, -210, 0, 140, -70, -352, 295, 3
1929, -902, 380, -210, 0, 210, -70, -352, 297, 1
1930, -902, 381, -210, 0, 210, -140, -348, 291, 6
1931, -902, 381, -210, -70, 140, -70, -355, 297, -1
1932, -902, 380, -210, 0, 140, -70, -355, 282, 6
1933, -902, 381, -210, 0, 210, 0, -348, 292, 1
1934, -902, 381, -210, 0, 140, -70, -352, 291, 1
1935, -902, 380, -210, 0, 140, -70, -357, 285, 1
1936, -902, 380, -210, 0, 210, -70, -352, 285, 6
1937, -902, 380, -211, 0, 70, -70, -357, 292, 6
1938, -902, 380, -210, 70, 210, -70, -354, 294, 6
1939, -903, 381, -210, 0, 140, -70, -349, 294, 9
1940, -902, 381, -210, 0, 210, -70, -355, 295, 7
1941, -902, 380, -211, -70, 140, -70, -349, 291, 3
1942, -902, 380, -210, 0, 210, -70, -349, 288, -4
1943, -903, 380, -210, 0, 70, -70, -349, 295, 3
1944, -902, 381, -211, 0, 210, -70, -361, 288, 6
1945, -902, 381, -210, 0, 140, -70, -349, 295, -7
1946, -903, 380, -210, 0, 140, -70, -357, 300, -1
1947, -903, 381, -210, 0, 70, -140, -360, 292, -1
1948, -901, 381, -211, 70, 210, -70, -345, 292, 0
1949, -902, 381, -210, 0, 210, -70, -348, 283, 3
1950, -902, 380, -209, 70, 70, -70, -361, 295, 7
1951, -902, 381, -210, 0, 140, -70, -349, 285, 3
1952, -902, 380, -210, 0, 210, -70, -343, 283, -7
1953, -902, 381, -209, -70, 210, -70, -351, 283, 1
1954, -903, 380, -210, -70, 210, -70, -352, 295, 7
1955, -902, 381, -210, 0, 140, -70, -354, 285, 1
1956, -902, 381, -210, 0, 140, -70, -355, 291, 0
1957, -902, 381, -211, -70, 140, -70, -354, 295, 1
1958, -902, 381, -209, 0, 70, -70, -351, 300, 12
1959, -902, 381, -211, 0, 140, -70, -351, 286, 6
1960, -902, 381, -210, -70, 210, -70, -352, 295, 7
1961, -903, 380, -209, 0, 210, -70, -351, 286, 0
1962, -902, 380, -211, 0, 140, -70, -348, 295, 4
1963, -902, 381, -210, 0, 140, -70, -360, 286, 10
1964, -902, 381, -209, 0, 140, -70, -361, 294, 9
1965, -903, 380, -210, 0, 140, -70, -348, 298, 3
1966, -902, 380, -211, -70, 140, -70, -352, 300, 9
1967, -902, 380, -210, 0, 210, -70, -346, 285, -4
1968, -902, 380, -209, 0, 210, -70, -360, 297, 3
1969, -902, 380, -209, 0, 140, -70, -342, 286, -6
1970, -902, 381, -210, 0, 70, -70, -357, 306, 10
1971, -901, 381, -210, 0, 210, -70, -358, 297, 7
1972, -903, 381, -210, 0, 210, -70, -339, 297, 7
1973, -902, 381, -210, 0, 140, -70, -352, 286, 3
1974, -902, 381, -210, 0, 210, -70, -354, 289, -1
1975, -902, 381, -210, 0, 140, -70, -355, 283, 3
1976, -902, 381, -210, -70, 210, -70, -352, 297, 10
1977, -902, 380, -210, -70, 140, -70, -358, 283, 4
1978, -902, 380, -209, -70, 140, -70, -354, 283, 6
1979, -902, 380, -209, 0, 140, -70, -354, 292, 0
1980, -902, 381, -210, 0, 210, -70, -346, 286, 6
1981, -902, 380, -210, 0, 140, -140, -354, 300, -3
1982, -901, 381, -208, 0, 210, -70, -355, 291, 3
1983, -903, 381, -210, 0, 140, -70, -358, 289, -1
1984, -902, 380, -210, 0, 140, -70, -351, 291, 10
1985, -902, 381, -209, 70, 210, -70, -349, 295, 3
1986, -902, 380, -210, -70, 210, -70, -351, 294, 1
1987, -902, 380, -210, 0, 210, -70, -354, 286, 7
1988, -902, 381, -211, 70, 140, -70, -354, 292, 0
1989, -902, 379, -210, 70, 140, -70, -354, 292, 3
1990, -902, 381, -210, 0, 70, -70, -360, 294, -3
1991, -901, 380, -210, 0, 140, -70, -343, 292, 10
1992, -902, 380, -210, -70, 140, -70, -352, 295, 6
1993, -902, 380, -210, -70, 210, -70, -349, 286, 7
1994, -902, 380, -210, 70, 70, -70, -345, 289, -7
1995, -903, 380, -210, 0, 140, -70, -360, 300, 4
1996, -902, 380, -210, 70, 140, -70, -352, 294, 4
1997, -902, 381, -210, 0, 70, -140, -357, 286, 4
1998, -902, 380, -209, 0, 140, -70, -345, 282, 0
1999, -902, 381, -210, 0, 140, -70, -351, 292, 6
2000, -903, 381, -210, 0, 210, -70, -355, 295, 4
2001, -901, 381, -209, -70, 140, -70, -354, 283, 6
2002, -902, 380, -209, 0, 140, -70, -361, 295, 1
2003, -902, 380, -209, 0, 140, -70, -354, 300, 10
2004, -903, 381, -209, 0, 140, -70, -345, 297, 1
2005, -902, 381, -211, 0, 210, -70, -357, 294, 3
2006, -902, 381, -210, 0, 140, -70, -346, 285, 9
2007, -901, 381, -210, 70, 140, -70, -348, 288, 7
2008, -902, 381, -210, -70, 210, -70, -351, 295, -1
2009, -903, 380, -210, 0, 140, -70, -346, 280, 13
2010, -902, 380, -210, 0, 140, -70, -351, 298, 3
2011, -902, 381, -210, 0, 140, -70, -343, 294, -4
2012, -902, 381, -209, 0, 140, -70, -352, 298, 4
2013, -902, 381, -210, 0, 280, -70, -351, 292, 10
2014, -902, 380, -210, 0, 140, -70, -360, 289, 3
2015, -902, 381, -210, 0, 140, -140, -345, 285, 6
2016, -902, 381, -210, 70, 210, -70, -358, 291, 10
2017, -902, 381, -209, -70, 210, -70, -349, 291, 3
2018, -902, 380, -210, 0, 140, -70, -348, 292, 0
2019, -902, 381, -210, -70, 210, -140, -354, 289, 3
2020, -902, 380, -210, 70, 210, -70, -354, 295, 12
2021, -901, 380, -211, 0, 210, -70, -354, 295, 0
2022, -903, 380, -209, 0, 140, -70, -357, 297, 9
2023, -902, 380, -210, 0, 140, -70, -354, 286, 3
2024, -903, 380, -210, 0, 140, -70, -354, 289, 6
2025, -902, 381, -210, -70, 140, -70, -367, 286, 3
2026, -902, 380, -209, 0, 140, -140, -358, 295, 4
2027, -903, 381, -210, 0, 140, -70, -351, 286, 1
2028, -902, 380, -210, 0, 140, -70, -352, 294, 7
2029, -902, 381, -210, 0, 140, -70, -354, 289, 7
2030, -902, 380, -209, 70, 140, -70, -349, 294, 7
2031, -902, 380, -211, 0, 210, -70, -343, 288, 15
2032, -902, 381, -210, 70, 140, -70, -354, 289, 12
2033, -902, 380, -210, 0, 140, -140, -345, 286, -3
2034, -902, 380, -210, 70, 140, -70, -351, 294, 7
2035, -902, 380, -211, 70, 210, -140, -358, 288, 4
2036, -902, 380, -208, 70, 210, -70, -354, 292, 0
2037, -904, 381, -211, -70, 210, -70, -355, 279, 19
2038, -901, 380, -209, 0, 70, -70, -349, 297, 16
2039, -903, 380, -211, 0, 140, -70, -352, 294, 13
2040, -902, 380, -210, 0, 140, -70, -358, 292, 12
2041, -903, 380, -210, 0, 210, -70, -351, 291, 6
2042, -901, 381, -210, 0, 140, -70, -355, 297, 10
2043, -902, 380, -211, 70, 140, -70, -349, 292, 7
2044, -902, 380, -210, 0, 210, -140, -352, 298, 3
2045, -902, 380, -209, 0, 140, -140, -349, 285, 3
2046, -902, 380, -210, 0, 280, -70, -358, 294, 9
2047, -902, 381, -209, -70, 140, -140, -346, 295, 3
2048, -903, 381, -210, 0, 140, -70, -348, 291, 9
2049, -902, 381, -210, 0, 70, -70, -351, 294, 12
2050, -902, 381, -209, 0, 70, -70, -351, 292, 1
2051, -902, 380, -210, 0, 210, -70, -361, 288, 3
2052, -889, 365, -206, 140, -70, -210, -358, 291, -3
2053, -867, 319, -180, 910, 1750, 0, -352, 294, 1
2054, -854, 271, -176, 2380, 4480, 210, -358, 286, 3
2055, -898, 341, -179, 3500, 4900, 630, -352, 294, 3
2056, -898, 503, -231, 2240, 7420, 700, -354, 291, 3
2057, -942, 441, -272, 1400, 1680, 140, -357, 285, 9
2058, -887, 363, -193, 840, 3710, 280, -343, 291, 7
2059, -930, 329, -216, 1330, 3290, 420, -357, 294, 16
2060, -929, 401, -235, 1610, 6930, 700, -348, 286, 7
2061, -934, 414, -235, 1190, 1050, 70, -351, 295, 10
2062, -922, 416, -239, 140, 910, 0, -358, 292, 15
2063, -920, 412, -241, -560, -1750, -210, -355, 300, 0
2064, -905, 396, -211, -1260, -1750, -280, -351, 291, 3
2065, -898, 399, -212, -2030, -4340, -560, -343, 285, 7
2066, -932, 403, -238, -2590, -4410, -560, -360, 286, 7
2067, -907, 395, -222, -2730, -6930, -840, -343, 300, -1
2068, -893, 381, -212, -2870, -5810, -770, -354, 286, 10
2069, -885, 365, -201, -2170, -4130, -560, -354, 292, 4
2070, -891, 354, -203, -1540, -3290, -490, -346, 289, 15
2071, -886, 359, -197, -910, -1820, -280, -349, 298, 3
2072, -901, 371, -210, -490, -840, -210, -355, 289, 1
2073, -898, 382, -205, -350, -700, -210, -352, 289, 10
2074, -910, 393, -217, -910, -2100, -280, -354, 298, 10
2075, -899, 388, -210, -1050, -2240, -280, -357, 295, 4
2076, -892, 373, -201, -840, -1820, -280, -349, 291, 7
2077, -893, 361, -200, -560, -840, -140, -355, 289, 4
2078, -891, 358, -197, -70, -140, -70, -357, 292, 0
2079, -894, 371, -202, 770, 1750, 140, -357, 292, 3
2080, -901, 377, -209, 980, 2310, 140, -351, 294, 3
2081, -905, 383, -211, 910, 2170, 210, -355, 292, 4
2082, -907, 386, -212, 840, 1890, 140, -358, 292, -1
2083, -907, 387, -213, 420, 1120, 70, -358, 295, 1
2084, -902, 383, -211, 350, 840, 0, -346, 289, 4
2085, -900, 378, -209, 350, 910, 70, -355, 285, 0
2086, -894, 363, -204, 560, 1120, 70, -354, 288, 4
2087, -892, 361, -202, 980, 2240, 210, -360, 288, 6
2088, -906, 388, -215, 1400, 3850, 350, -340, 298, 9
2089, -919, 399, -224, 1050, 2520, 210, -351, 297, 6
2090, -915, 403, -225, 490, 980, 0, -348, 288, 13
2091, -904, 394, -217, 70, 350, -70, -351, 291, 13
2092, -904, 378, -210, 0, 420, -70, -357, 282, -7
2093, -898, 379, -210, 210, 490, -70, -343, 291, 3
2094, -906, 387, -217, 140, 630, 0, -349, 300, 4
2095, -905, 386, -216, 0, 140, -140, -346, 285, 9
2096, -902, 384, -212, -140, -70, -70, -351, 283, 6
2097, -902, 381, -212, -140, -140, -140, -351, 295, -1
2098, -903, 381, -213, -210, -210, -140, -363, 291, 15
2099, -901, 383, -212, -140, -350, -140, -358, 292, 3
2100, -901, 381, -213, -210, -280, -140, -352, 292, 7
2101, -902, 381, -212, -280, -210, -140, -346, 283, 6
2102, -900, 382, -212, -210, -490, -210, -354, 288, 12
2103, -902, 381, -212, -280, -420, -140, -343, 295, 7
2104, -900, 380, -211, -280, -490, -140, -364, 292, 10
2105, -901, 378, -211, -210, -280, -140, -349, 289, 4
2106, -901, 378, -211, -140, -280, -140, -348, 282, 7
2107, -901, 379, -211, -140, 70, -70, -348, 289, 10
2108, -902, 379, -211, -70, 140, -70, -346, 292, 6
2109, -901, 380, -211, -70, 0, -140, -348, 285, 4
2110, -901, 380, -211, 0, 140, -70, -357, 288, 1
2111, -901, 379, -210, 0, 210, -70, -351, 285, 10
2112, -900, 378, -209, 70, 280, -70, -357, 295, 1
2113, -902, 379, -211, 70, 350, -70, -357, 292, 12
2114, -901, 381, -210, 70, 350, -70, -351, 291, 13
2115, -903, 382, -212, 140, 560, -70, -345, 289, 3
2116, -903, 381, -212, 0, 280, -70, -340, 294, 15
2117, -902, 380, -211, 0, 210, -140, -354, 292, 6
2118, -901, 380, -211, 70, 280, -70, -352, 285, 10
2119, -903, 381, -213, 70, 210, -70, -351, 282, 1
2120, -902, 382, -212, 0, 210, -70, -360, 285, 7
2121, -901, 381, -212, 0, 70, -70, -358, 292, 4
2122, -903, 381, -212, 0, 280, -70, -357, 294, 3
2123, -902, 381, -212, 0, 70, -70, -345, 292, 4
2124, -898, 380, -210, 0, 140, -70, -352, 295, 13
2125, -903, 381, -211, 0, 70, -70, -352, 283, 6
2126, -897, 380, -209, 0, 210, -70, -349, 292, 15
2127, -906, 381, -214, 70, 490, 0, -354, 292, 6
2128, -902, 380, -210, 0, -70, -70, -346, 289, 15
2129, -902, 382, -212, 0, 210, -70, -352, 285, 6
2130, -901, 380, -210, -70, 140, -70, -349, 288, 4
2131, -902, 379, -211, 0, 0, -70, -355, 286, 7
2132, -903, 380, -212, 0, 140, -70, -354, 288, 15
2133, -901, 382, -212, 0, -140, -140, -354, 289, 12
2134, -901, 381, -212, -70, 210, -70, -354, 301, 10
2135, -901, 379, -211, 0, 210, -70, -361, 301, -1
2136, -902, 380, -212, 70, 350, 0, -355, 288, 3
2137, -901, 381, -212, 70, 280, 0, -349, 285, 1
2138, -902, 382, -213, 70, 350, 0, -351, 298, 18
2139, -902, 381, -211, 0, 210, -70, -352, 291, 10
2140, -903, 380, -213, 0, 210, 0, -349, 289, 4
2141, -901, 380, -211, 0, 140, 0, -361, 292, 3
2142, -901, 380, -211, 0, 210, -70, -343, 292, 12
2143, -902, 381, -212, 70, 280, -70, -348, 289, 3
2144, -902, 380, -212, 70, 140, 0, -358, 289, 15
2145, -903, 380, -213, 70, 280, 0, -351, 291, 10
2146, -901, 379, -211, 70, 350, 0, -354, 294, 9
2147, -904, 377, -212, 140, 560, 70, -352, 291, 6
2148, -904, 378, -211, 210, 490, 140, -358, 291, 12
2149, -910, 379, -212, 210, 630, 280, -351, 298, 10
2150, -923, 379, -214, 70, 840, 560, -358, 295, 0
2151, -944, 380, -218, -70, 560, 910, -346, 297, 3
2152, -989, 386, -221, -420, 910, 1890, -343, 289, 7
2153, -1027, 376, -240, -1540, -5110, 4130, -354, 294, 3
2154, -1017, 391, -256, -2240, -5320, 5740, -343, 292, 4
2155, -988, 413, -247, -2940, -6090, 7140, -348, 292, 16
2156, -984, 423, -250, -3780, -5880, 8540, -355, 297, 13
2157, -971, 418, -240, -4550, -7070, 9520, -354, 304, 1
2158, -970, 402, -226, -5880, -8470, 11410, -364, 294, 10
2159, -985, 398, -220, -6510, -8750, 12390, -352, 300, 0
2160, -999, 393, -216, -7070, -11060, 13160, -358, 292, -1
2161, -1004, 385, -211, -7560, -13020, 14070, -355, 300, 4
2162, -1005, 382, -215, -8050, -16940, 15890, -360, 297, 3
2163, -993, 393, -215, -8820, -18270, 16870, -357, 294, 0
2164, -984, 399, -213, -9170, -18830, 18060, -354, 301, 3
2165, -978, 406, -212, -9450, -19110, 19320, -357, 298, -1
2166, -988, 415, -213, -9940, -18690, 20720, -361, 300, 1
2167, -991, 422, -205, -10710, -19950, 23450, -352, 306, -12
2168, -999, 425, -212, -11200, -20580, 24920, -372, 304, -7
2169, -987, 427, -202, -11690, -21350, 26250, -363, 298, -7
2170, -992, 429, -201, -12180, -21000, 27720, -363, 300, -15
2171, -987, 433, -191, -12460, -21910, 29120, -364, 303, -9
2172, -983, 437, -186, -13230, -22890, 31920, -373, 303, -9
2173, -982, 438, -182, -13720, -22680, 33460, -370, 301, -10
2174, -980, 440, -171, -13930, -23590, 34790, -369, 307, -15
2175, -988, 439, -170, -14350, -24010, 36190, -373, 316, -10
2176, -977, 443, -156, -15260, -25830, 38920, -379, 309, -16
2177, -980, 447, -152, -15610, -28420, 40180, -375, 321, -16
2178, -987, 453, -155, -16030, -28140, 41790, -372, 309, -21
2179, -964, 456, -147, -16170, -30520, 43050, -378, 318, -21
2180, -953, 465, -144, -16310, -29050, 44660, -378, 322, -27
2181, -924, 483, -131, -16380, -28910, 47180, -387, 318, -30
2182, -921, 490, -134, -16380, -27930, 48440, -388, 322, -30
2183, -899, 499, -120, -16310, -27790, 49350, -385, 327, -25
2184, -904, 511, -126, -16450, -26110, 50470, -393, 330, -30
2185, -884, 517, -111, -16310, -26530, 51240, -397, 333, -36
2186, -879, 528, -105, -16380, -26180, 52780, -405, 327, -33
2187, -854, 540, -86, -16310, -23800, 53620, -399, 334, -33
2188, -876, 551, -104, -16310, -23240, 54110, -412, 342, -27
2189, -848, 570, -80, -16100, -23030, 54320, -403, 333, -40
2190, -914, 610, -100, -16380, -23870, 53830, -411, 345, -39
2191, -979, 689, -91, -17150, -20720, 53410, -409, 346, -36
2192, -994, 702, -97, -17290, -26390, 51520, -417, 352, -48
2193, -995, 685, -110, -17570, -23380, 50820, -418, 337, -42
2194, -925, 628, -111, -16800, -26320, 49770, -421, 351, -43
2195, -764, 540, -90, -14700, -15960, 51310, -426, 340, -40
2196, -741, 545, -68, -13860, -10290, 52500, -424, 363, -46
2197, -760, 563, -57, -13160, -7350, 53060, -430, 351, -43
2198, -774, 579, -32, -12670, -5180, 53130, -427, 352, -46
2199, -786, 590, -17, -12250, -4480, 52710, -436, 354, -43
2200, -791, 601, 14, -11200, -6860, 51800, -439, 363, -37
2201, -802, 594, 24, -10640, -9030, 51730, -441, 357, -52
2202, -801, 603, 22, -10080, -14210, 51450, -447, 364, -46
2203, -808, 607, 4, -9660, -16730, 51590, -448, 357, -57
2204, -801, 590, -6, -8400, -15400, 51940, -445, 375, -57
2205, -729, 621, -5, -7630, -8330, 52850, -456, 369, -60
2206, -722, 673, -11, -7140, -2590, 53830, -460, 366, -52
2207, -729, 704, -9, -7350, 1330, 54670, -456, 358, -52
2208, -753, 704, -6, -7980, 1680, 55300, -463, 369, -51
2209, -826, 699, -6, -9800, -2940, 56070, -468, 366, -52
2210, -858, 697, -7, -10850, -6930, 56280, -472, 358, -60
2211, -895, 682, -23, -12110, -12810, 56420, -472, 363, -55
2212, -887, 674, -14, -13300, -18620, 56910, -477, 378, -52
2213, -903, 681, -24, -14280, -21980, 58380, -483, 375, -46
2214, -924, 720, -20, -14560, -22470, 63980, -475, 370, -55
2215, -955, 742, -36, -13790, -20160, 67480, -486, 372, -64
2216, -922, 760, -24, -12950, -17290, 70210, -495, 384, -58
2217, -894, 769, -33, -12320, -12180, 72870, -502, 373, -54
2218, -776, 740, -18, -11760, -5040, 78120, -496, 379, -67
2219, -764, 733, -18, -12110, -3290, 80570, -514, 381, -63
2220, -767, 744, -20, -12670, -1960, 82740, -507, 387, -57
2221, -773, 762, -19, -13160, -1400, 84700, -514, 387, -60
2222, -776, 768, -24, -13300, -280, 86660, -514, 384, -63
2223, -722, 761, -12, -12670, 4620, 90790, -522, 382, -58
2224, -681, 764, -22, -11970, 9170, 92750, -531, 391, -57
2225, -621, 757, -7, -11060, 15190, 94710, -538, 396, -70
2226, -608, 755, -29, -10290, 22680, 96810, -540, 393, -66
2227, -555, 761, -6, -9520, 28140, 98420, -547, 391, -66
2228, -485, 756, 24, -7980, 45570, 101430, -552, 390, -60
2229, -575, 743, -84, -7490, 50540, 103110, -558, 393, -67
2230, -435, 776, 51, -7000, 54670, 103600, -561, 388, -70
2231, -641, 798, -92, -8260, 65170, 105280, -576, 393, -63
2232, -450, 768, -16, -9730, 63980, 104720, -570, 391, -64
2233, -459, 793, -53, -9940, 61390, 104300, -577, 387, -76
2234, -367, 826, 31, -10500, 65870, 104230, -589, 393, -67
2235, -531, 835, -94, -12530, 69930, 104930, -591, 381, -69
2236, -400, 854, 13, -14000, 59920, 103320, -601, 385, -88
2237, -364, 828, 7, -17570, 51450, 102130, -610, 382, -78
2238, -351, 809, -23, -18690, 65170, 103530, -612, 394, -78
2239, -279, 816, 3, -17780, 60830, 102060, -616, 385, -88
2240, -307, 817, -13, -18340, 74480, 102900, -622, 384, -76
2241, -376, 860, -24, -19600, 69020, 101290, -627, 390, -99
2242, -146, 836, 43, -21840, 61180, 98280, -633, 376, -91
2243, -138, 808, 25, -21770, 72310, 98210, -636, 384, -100
2244, -87, 807, 23, -20790, 73080, 96530, -637, 382, -117
2245, -29, 836, 54, -19950, 84350, 95830, -642, 384, -105
2246, 27, 824, 63, -17990, 95060, 92120, -651, 381, -105
2247, 94, 792, 56, -16310, 101570, 89950, -655, 373, -114
2248, 158, 803, 81, -14000, 115150, 88480, -654, 370, -120
2249, 115, 843, 86, -11760, 128730, 86590, -664, 363, -126
2250, 102, 853, 94, -10010, 133840, 83860, -661, 372, -127
2251, -126, 897, -3, -11900, 131740, 77280, -663, 375, -130
2252, 163, 880, 200, -12040, 115150, 72030, -664, 369, -145
2253, -28, 857, 51, -14140, 134190, 71960, -673, 363, -156
2254, 83, 845, 169, -12530, 106540, 65450, -673, 357, -145
2255, -59, 918, 51, -15260, 120330, 65100, -672, 361, -162
2256, -22, 804, 199, -15540, 100730, 57120, -676, 349, -166
2257, 92, 1009, 215, -16310, 94500, 52920, -678, 354, -166
2258, -75, 827, 143, -16450, 78610, 48440, -685, 367, -177
2259, 156, 995, 221, -17360, 76370, 46130, -682, 354, -174
2260, -40, 989, 192, -19880, 61180, 40250, -685, 355, -177
2261, -106, 901, 183, -21560, 38640, 35560, -688, 352, -184
2262, -58, 941, 203, -23800, 32270, 33040, -690, 345, -193
2263, -78, 918, 156, -24360, 7490, 28070, -694, 354, -195
2264, -26, 982, 165, -26670, 7210, 26250, -685, 348, -201
2265, 25, 975, 221, -28980, -20160, 19460, -688, 346, -196
2266, -82, 959, 120, -30170, -36120, 16030, -676, 346, -201
2267, -4, 995, 130, -32060, -47110, 13650, -690, 348, -199
2268, -93, 969, 52, -33740, -57190, 11550, -691, 337, -204
2269, -51, 982, 88, -35000, -77350, 8120, -700, 349, -201
2270, -147, 1007, 23, -38080, -93800, 5950, -700, 346, -190
2271, -134, 979, 21, -39340, -104650, 4410, -700, 346, -198
2272, -92, 983, 39, -40040, -113400, 3010, -706, 342, -193
2273, -62, 960, 39, -40390, -121800, 1540, -708, 351, -204
2274, 71, 952, 59, -39550, -122290, 210, -700, 343, -198
2275, 115, 966, 63, -38640, -123620, -420, -706, 343, -189
2276, 155, 962, 100, -38010, -117880, -70, -700, 345, -181
2277, 129, 983, 89, -37170, -113190, 210, -715, 337, -190
2278, 112, 971, 96, -36540, -111300, 350, -712, 339, -178
2279, 36, 980, 67, -34650, -100800, 1400, -717, 342, -190
2280, -7, 998, 42, -33530, -102760, 1190, -714, 340, -184
2281, -12, 996, 66, -33250, -99820, 1610, -702, 342, -181
2282, -43, 1012, 56, -32900, -99680, 1750, -715, 337, -166
2283, -74, 999, 61, -33390, -108150, 1470, -706, 334, -180
2284, 1, 974, 91, -33390, -104650, 2240, -718, 334, -165
2285, -24, 980, 54, -33040, -106890, 2450, -718, 345, -168
2286, 22, 990, 95, -32970, -105350, 2940, -718, 330, -163
2287, -5, 997, 74, -32830, -104300, 3430, -712, 337, -177
2288, 34, 994, 91, -32340, -106470, 3710, -724, 343, -154
2289, 38, 1010, 117, -31990, -97860, 4900, -730, 331, -156
2290, -41, 1025, 63, -31990, -99330, 5180, -732, 337, -160
2291, 15, 1017, 124, -32340, -102130, 5320, -718, 324, -162
2292, -61, 994, 86, -33110, -99890, 6230, -724, 334, -147
2293, 6, 968, 116, -33390, -105420, 6650, -729, 334, -148
2294, 11, 990, 111, -33040, -109270, 6650, -729, 330, -141
2295, -2, 999, 108, -34020, -108570, 7140, -726, 333, -150
2296, 75, 978, 113, -33670, -117040, 6160, -739, 334, -138
2297, 163, 959, 143, -31850, -107240, 6790, -727, 322, -141
2298, 247, 990, 150, -30870, -100240, 7420, -730, 328, -124
2299, 206, 994, 132, -30170, -93800, 7910, -736, 322, -130
2300, 224, 942, 153, -28980, -94010, 7420, -732, 333, -120
2301, 244, 919, 174, -27580, -86660, 7630, -736, 334, -123
2302, 248, 924, 172, -24150, -78470, 7280, -735, 325, -120
2303, 225, 915, 164, -22680, -71960, 7560, -736, 322, -123
2304, 282, 913, 197, -20160, -68880, 7420, -736, 321, -123
2305, 295, 919, 201, -17990, -56630, 8260, -736, 327, -124
2306, 338, 937, 212, -15260, -50330, 8400, -738, 331, -124
2307, 330, 929, 230, -10920, -28560, 9800, -739, 325, -123
2308, 337, 905, 265, -8890, -20020, 10220, -733, 322, -126
2309, 281, 889, 253, -7000, -11900, 10500, -747, 331, -121
2310, 255, 887, 270, -5460, -8680, 10220, -736, 319, -129
2311, 228, 891, 293, -3220, -3710, 9660, -741, 334, -117
2312, 208, 921, 306, -2310, -1540, 9100, -738, 318, -112
2313, 202, 939, 314, -1820, 0, 8540, -741, 331, -121
2314, 215, 946, 335, -1470, 910, 7910, -744, 321, -105
2315, 200, 943, 339, -1470, 3080, 7490, -741, 318, -115
2316, 149, 931, 347, -1960, 1820, 6090, -744, 321, -126
2317, 117, 923, 341, -2310, -70, 5320, -748, 313, -124
2318, 106, 925, 350, -2590, -2170, 4550, -747, 325, -124
2319, 83, 924, 346, -2940, -4550, 3920, -742, 322, -118
2320, 91, 931, 349, -3220, -8050, 3220, -741, 333, -114
2321, 80, 941, 346, -3990, -11340, 2660, -747, 324, -121
2322, 87, 938, 352, -4340, -13300, 2450, -748, 319, -126
2323, 91, 936, 347, -4620, -14140, 2450, -742, 324, -118
2324, 93, 931, 350, -4690, -14490, 2520, -753, 325, -112
2325, 92, 926, 346, -4480, -14910, 3080, -739, 327, -121
2326, 101, 927, 345, -4200, -14700, 3500, -738, 322, -114
2327, 100, 927, 338, -3920, -13510, 4200, -741, 327, -117
2328, 110, 935, 336, -3430, -12880, 4760, -736, 328, -114
2329, 107, 939, 325, -3010, -10220, 5740, -750, 330, -111
2330, 93, 952, 303, -2100, -6860, 7490, -744, 313, -115
2331, 90, 958, 291, -1750, -6160, 8330, -747, 315, -115
2332, 90, 961, 282, -1470, -5110, 9100, -742, 324, -111
2333, 90, 963, 270, -1330, -4690, 9800, -747, 319, -114
2334, 98, 965, 259, -1330, -4480, 10360, -739, 312, -115
2335, 150, 956, 247, -1050, -4410, 10920, -753, 319, -118
2336, 180, 946, 243, -630, -3850, 11060, -742, 312, -109
2337, 202, 941, 240, -210, -1890, 11270, -748, 316, -114
2338, 209, 940, 235, 210, 0, 11270, -745, 315, -111
2339, 213, 945, 226, 630, 1680, 10920, -748, 319, -115
2340, 219, 945, 227, 770, 2450, 10570, -741, 309, -117
2341, 219, 944, 227, 910, 3430, 10150, -742, 315, -112
2342, 222, 946, 226, 1120, 3920, 9590, -747, 316, -112
2343, 227, 943, 228, 1190, 4200, 9030, -751, 315, -117
2344, 230, 944, 229, 1260, 4480, 7770, -750, 310, -117
2345, 227, 948, 229, 1260, 4480, 7070, -754, 310, -120
2346, 223, 947, 229, 1050, 4130, 6230, -756, 316, -115
2347, 222, 947, 229, 840, 3780, 5530, -753, 319, -115
2348, 214, 946, 227, 490, 3080, 4690, -754, 316, -115
2349, 205, 953, 226, -280, -70, 2870, -753, 321, -114
2350, 203, 955, 224, -770, -1960, 1820, -756, 315, -121
2351, 201, 954, 221, -1120, -3430, 980, -756, 316, -118
2352, 202, 955, 220, -1680, -5460, 0, -750, 318, -117
2353, 194, 957, 218, -2870, -8610, -1470, -750, 310, -115
2354, 189, 957, 219, -3290, -10010, -2240, -753, 312, -112
2355, 187, 959, 220, -3710, -11550, -2940, -753, 318, -118
2356, 185, 960, 221, -4200, -12880, -3570, -753, 321, -115
2357, 186, 956, 223, -4410, -14490, -4270, -756, 319, -114
2358, 180, 952, 227, -4900, -16730, -5250, -747, 315, -114
2359, 176, 954, 232, -5180, -17500, -5670, -756, 316, -115
2360, 168, 950, 233, -5460, -18900, -6090, -750, 310, -115
2361, 178, 946, 244, -5460, -19810, -6440, -744, 310, -109
2362, 183, 943, 252, -5390, -19250, -6510, -754, 312, -109
2363, 185, 952, 260, -4970, -17780, -6300, -753, 316, -102
2364, 195, 951, 265, -4690, -16380, -6160, -753, 318, -106
2365, 199, 946, 270, -4200, -13930, -5740, -747, 319, -106
2366, 192, 947, 269, -3780, -11550, -5390, -748, 318, -105
2367, 190, 947, 273, -2940, -8680, -5040, -751, 324, -109
2368, 189, 941, 276, -2660, -8330, -5180, -751, 318, -100
2369, 184, 936, 276, -2590, -7770, -5320, -750, 312, -99
2370, 180, 932, 275, -2450, -8330, -5530, -756, 316, -109
2371, 181, 927, 275, -2310, -8190, -5530, -748, 318, -105
2372, 197, 920, 285, -1190, -5320, -5040, -748, 316, -102
2373, 216, 922, 290, -210, -1960, -4550, -748, 312, -108
2374, 226, 922, 296, 910, 2310, -3850, -748, 318, -106
2375, 228, 921, 303, 2170, 7000, -3010, -747, 321, -103
2376, 219, 920, 303, 4480, 14630, -1890, -744, 318, -100
2377, 201, 916, 301, 5320, 17920, -1470, -748, 315, -99
2378, 177, 929, 297, 5740, 20020, -1120, -754, 321, -100
2379, 146, 950, 292, 5670, 20440, -980, -741, 321, -105
2380, 100, 972, 283, 4900, 19180, -1190, -757, 327, -103
2381, 32, 982, 269, 2450, 9520, -2100, -748, 310, -102
2382, 31, 971, 255, 1400, 3360, -2800, -753, 316, -109
2383, 80, 949, 263, 1120, 0, -3010, -742, 321, -106
2384, 112, 941, 253, 1190, 0, -2590, -754, 316, -100
2385, 159, 954, 262, 1610, 210, -2100, -745, 321, -111
2386, 185, 974, 259, 2030, 4970, -420, -750, 312, -100
2387, 148, 980, 234, 2310, 9590, 630, -744, 312, -97
2388, 102, 1001, 236, 2030, 10220, 910, -747, 327, -105
2389, 53, 1002, 210, 980, 6440, 700, -747, 312, -109
2390, 39, 1000, 216, -1400, -5460, -280, -753, 324, -99
2391, 56, 985, 199, -2590, -8890, -490, -751, 322, -105
2392, 86, 986, 187, -3430, -14840, -1120, -751, 318, -109
2393, 136, 982, 189, -3990, -15750, -980, -747, 313, -109
2394, 166, 978, 191, -4060, -15190, -700, -744, 319, -93
2395, 192, 975, 199, -3570, -10780, 490, -750, 318, -108
2396, 175, 967, 191, -3080, -8330, 1050, -745, 318, -109
2397, 165, 966, 210, -2660, -5880, 1680, -754, 321, -102
2398, 140, 962, 201, -2170, -5740, 1890, -748, 318, -112
2399, 137, 970, 220, -2100, -4410, 2380, -744, 315, -112
2400, 154, 960, 244, -1750, -3850, 2870, -757, 322, -99
2401, 152, 955, 244, -1330, -4690, 3080, -748, 321, -108
2402, 156, 956, 256, -1260, -1960, 3920, -751, 319, -109
2403, 168, 952, 264, -770, -2450, 4130, -747, 321, -102
2404, 164, 945, 273, 350, 1610, 5180, -739, 319, -100
2405, 160, 939, 285, 560, 4830, 5810, -753, 313, -97
2406, 160, 938, 292, 910, 3640, 5810, -745, 321, -100
2407, 155, 937, 292, 910, 5110, 6090, -748, 318, -109
2408, 159, 936, 299, 910, 3640, 5810, -753, 315, -112
2409, 182, 934, 298, 770, 3220, 5460, -759, 324, -106
2410, 201, 925, 296, 910, 4060, 5250, -744, 315, -103
2411, 225, 917, 301, 1260, 4830, 4970, -739, 313, -118
2412, 223, 913, 296, 1680, 6860, 4900, -756, 313, -106
2413, 213, 917, 299, 2030, 7420, 4620, -757, 318, -108
2414, 176, 934, 290, 2170, 6860, 3850, -748, 319, -105
2415, 164, 941, 281, 1820, 5670, 3290, -738, 318, -106
2416, 167, 947, 282, 1540, 4550, 2730, -756, 316, -100
2417, 170, 948, 275, 1120, 3150, 2100, -754, 319, -111
2418, 180, 945, 267, 490, 280, 1050, -750, 321, -114
2419, 194, 934, 261, 350, -210, 560, -753, 324, -109
2420, 213, 930, 262, 560, -1050, 70, -747, 327, -117
2421, 215, 931, 258, 700, 630, -140, -745, 309, -112
2422, 229, 936, 260, 1050, 350, -630, -748, 309, -105
2423, 231, 940, 255, 1610, 3570, -910, -753, 312, -105
2424, 219, 943, 253, 1820, 5950, -910, -742, 307, -103
2425, 195, 951, 246, 1890, 6440, -1050, -748, 316, -109
2426, 173, 959, 242, 1820, 6790, -1120, -751, 310, -100
2427, 155, 964, 242, 1540, 5740, -1470, -747, 318, -111
2428, 136, 965, 234, 700, 1680, -2240, -754, 313, -105
2429, 132, 967, 226, 0, -560, -2660, -748, 318, -105
2430, 146, 972, 222, -630, -3710, -3150, -745, 313, -115
2431, 167, 979, 223, -1120, -4620, -3500, -748, 316, -111
2432, 225, 929, 213, -910, -3430, -3500, -744, 324, -102
2433, 249, 947, 244, 70, -1120, -3570, -748, 312, -112
2434, 175, 960, 200, 210, 3290, -2940, -750, 318, -103
2435, 221, 969, 255, 560, -840, -3710, -745, 316, -109
2436, 142, 960, 200, 0, 4690, -3150, -753, 315, -112
2437, 138, 954, 216, -560, 2520, -3850, -747, 324, -120
2438, 165, 961, 255, -630, -3430, -4830, -742, 315, -108
2439, 147, 959, 232, -1190, -1610, -4620, -759, 321, -115
2440, 157, 966, 258, -1330, -4830, -5110, -736, 322, -105
2441, 141, 958, 235, -1680, -4970, -5180, -748, 319, -106
2442, 143, 957, 236, -2170, -6790, -5670, -745, 316, -103
2443, 164, 962, 262, -2310, -6720, -5810, -745, 322, -96
2444, 151, 956, 242, -2380, -7770, -5880, -756, 315, -111
2445, 162, 960, 262, -2590, -7210, -5880, -745, 321, -103
2446, 149, 954, 260, -2730, -8120, -6020, -753, 318, -100
2447, 127, 952, 245, -3010, -9450, -6160, -747, 333, -97
2448, 143, 951, 255, -3220, -11060, -6300, -748, 306, -112
2449, 152, 950, 260, -3080, -10850, -6300, -736, 319, -96
2450, 146, 942, 257, -3080, -10430, -6160, -747, 319, -111
2451, 178, 945, 269, -2310, -8050, -5600, -748, 322, -106
2452, 180, 943, 271, -1680, -6020, -5110, -745, 321, -97
2453, 189, 941, 276, -910, -3500, -4620, -742, 321, -103
2454, 188, 940, 277, -210, -140, -3990, -741, 324, -99
2455, 176, 940, 278, 490, 2660, -3430, -747, 325, -97
2456, 144, 945, 283, 1190, 5110, -2730, -745, 319, -103
2457, 124, 944, 275, 1400, 5530, -2450, -745, 318, -102
