Time [mS], AccX [mg],AccY [mg],AccZ [mg],GyroX [mdps],GyroY [mdps],GyroZ [mdps],MagX [mgauss],MagY [mgauss],MagZ [mgauss]
54292, -166, 975, 155, 350, -1120, 1820, -645, 357, -121
54293, -176, 970, 140, 210, -210, 2940, -658, 375, -112
54294, -185, 978, 137, 630, -3080, 3220, -648, 369, -124
54295, -177, 977, 142, 1190, -6720, 2660, -646, 355, -108
54296, -176, 976, 142, 1470, -8050, 2450, -643, 367, -111
54297, -180, 977, 145, 2310, -10290, 1680, -643, 358, -112
54298, -169, 977, 152, 2730, -11060, 700, -639, 361, -118
54299, -162, 978, 158, 2380, -9100, 210, -640, 364, -120
54300, -162, 977, 153, 1890, -6510, 0, -645, 372, -114
54301, -149, 975, 155, 1470, -3990, 210, -646, 366, -112
54302, -145, 970, 155, 420, 1120, 1400, -642, 364, -115
54303, -156, 971, 150, 140, 1540, 1610, -643, 363, -118
54304, -157, 972, 149, 280, 490, 1400, -642, 364, -114
54305, -163, 975, 151, 350, 210, 1260, -646, 369, -109
54306, -164, 976, 152, 140, -560, 1470, -639, 363, -111
54307, -166, 976, 150, 70, -1120, 1960, -637, 351, -114
54308, -161, 973, 152, 70, -1540, 2730, -652, 363, -111
54309, -154, 967, 153, 0, -1400, 4410, -642, 360, -123
54310, -160, 971, 151, -210, -1400, 7350, -648, 370, -106
54311, -171, 982, 152, -1050, -2240, 5250, -642, 367, -109
54312, -160, 979, 153, -840, -2310, 3360, -642, 369, -115
54313, -154, 978, 156, -700, -1680, 2730, -648, 367, -112
54314, -143, 975, 161, -910, 140, 2800, -646, 361, -112
54315, -129, 964, 163, -1470, 2450, 5320, -645, 366, -117
54316, -113, 947, 162, -1610, 5390, 21070, -648, 357, -118
54317, -120, 956, 164, -1750, 6720, 26390, -664, 366, -111
54318, -113, 953, 160, -2730, 6930, 33670, -660, 355, -117
54319, -123, 961, 151, -3640, 4970, 43680, -648, 358, -114
54320, -165, 999, 149, -2380, -2800, 31010, -658, 360, -124
54321, -194, 1034, 153, -140, -6720, 15260, -649, 370, -111
54322, -151, 997, 160, 980, -8050, 2870, -657, 358, -106
54323, -135, 985, 162, 1400, -9380, -280, -658, 358, -111
54324, -131, 980, 163, 1750, -10360, -1120, -649, 364, -121
54325, -114, 977, 170, 3640, -9170, -1260, -655, 357, -114
54326, -107, 976, 171, 3570, -6930, -1610, -657, 355, -117
54327, -105, 980, 176, 3220, -3710, -1960, -658, 358, -114
54328, -108, 981, 175, 2310, -490, -2730, -648, 358, -106
54329, -109, 977, 172, 1050, 2100, -3500, -655, 364, -106
54330, -125, 981, 168, 700, 3570, 0, -663, 354, -115
54331, -124, 981, 168, -350, 2730, 70, -663, 360, -108
54332, -115, 977, 165, -910, 2590, 70, -657, 360, -115
54333, -122, 975, 163, -770, 3080, -70, -663, 361, -115
54334, -105, 994, 203, -1890, 4480, -1260, -660, 355, -111
54335, -134, 977, 156, -420, 2380, -630, -658, 360, -109
54336, -106, 977, 172, -560, 3500, -560, -658, 357, -115
54337, -123, 979, 161, -630, 3080, -630, -660, 366, -112
54338, -114, 976, 164, -1050, 3010, -770, -654, 352, -117
54339, -135, 974, 147, -700, 840, -1190, -649, 364, -114
54340, -136, 977, 150, -280, 1890, -840, -655, 357, -120
54341, -128, 978, 151, 770, -910, -910, -654, 364, -117
54342, -119, 981, 158, 910, -1190, -910, -652, 361, -115
54343, -123, 980, 154, 700, -420, -910, -651, 364, -118
54344, -127, 978, 151, 280, 1540, -770, -649, 351, -124
54345, -135, 978, 147, 280, 1610, -770, -652, 361, -109
54346, -136, 976, 140, 140, -2870, -1470, -655, 358, -121
54347, -136, 982, 153, 420, 1470, -840, -652, 364, -114
54348, -140, 981, 147, 490, -210, -770, -660, 360, -114
54349, -134, 980, 142, 350, -280, -770, -655, 367, -118
54350, -133, 979, 144, 420, 910, -420, -651, 360, -117
54351, -131, 980, 141, 280, -420, -560, -652, 370, -120
54352, -128, 979, 144, 280, 1470, -350, -642, 366, -118
54353, -112, 976, 151, 0, 2100, -140, -652, 366, -115
54354, -137, 979, 139, 0, 2030, -70, -658, 360, -118
54355, -132, 982, 148, -350, 3640, 210, -660, 363, -111
54356, -138, 981, 142, -140, 1960, 0, -655, 363, -114
54357, -130, 979, 153, -140, 1610, -70, -661, 367, -117
54358, -132, 979, 151, -70, 980, -70, -654, 361, -126
54359, -131, 980, 153, -70, 770, -70, -661, 367, -120
54360, -127, 978, 154, 0, 420, -140, -648, 358, -114
54361, -129, 979, 155, 70, 140, -140, -652, 360, -132
54362, -131, 978, 156, 210, -700, -350, -646, 361, -117
54363, -126, 978, 157, 350, -980, -420, -657, 351, -112
54364, -132, 980, 157, 560, -700, -490, -658, 355, -114
54365, -115, 979, 164, 280, -1470, -630, -657, 367, -120
54366, -126, 979, 160, 350, -1050, -630, -652, 360, -121
54367, -122, 977, 161, 560, -1330, -770, -654, 364, -112
54368, -121, 976, 161, 490, -1190, -840, -648, 355, -120
54369, -123, 976, 160, 490, -1120, -910, -655, 360, -114
54370, -121, 976, 160, 560, -980, -1050, -654, 361, -123
54371, -127, 976, 157, 700, -840, -1190, -654, 352, -118
54372, -123, 976, 156, 560, -1260, -1330, -657, 357, -114
54373, -125, 980, 161, 560, -770, -1400, -654, 367, -114
54374, -125, 979, 159, 490, -910, -1330, -657, 364, -120
54375, -125, 978, 159, 560, -140, -1330, -657, 372, -114
54376, -128, 976, 156, 420, 280, -1330, -654, 361, -109
54377, -130, 978, 153, 490, -210, -1470, -651, 361, -112
54378, -122, 977, 161, 700, -140, -1540, -654, 363, -121
54379, -137, 977, 152, 770, 420, -1470, -655, 354, -124
54380, -129, 977, 158, 700, 280, -1470, -663, 358, -108
54381, -132, 979, 153, 560, 420, -1470, -652, 361, -109
54382, -133, 979, 153, 420, 770, -1400, -657, 358, -118
54383, -138, 980, 150, 560, 840, -1330, -660, 357, -111
54384, -138, 980, 151, 490, 1260, -1260, -648, 355, -117
54385, -138, 979, 151, 420, 1260, -1190, -655, 363, -108
54386, -139, 979, 151, 140, 2240, -910, -648, 363, -117
54387, -139, 979, 150, 210, 1680, -840, -663, 358, -123
54388, -141, 979, 151, 210, 1470, -910, -651, 360, -118
54389, -141, 978, 150, 280, 1190, -840, -660, 357, -106
54390, -140, 979, 149, 70, 1470, -700, -654, 364, -123
54391, -137, 978, 150, 280, 1050, -700, -660, 364, -111
54392, -138, 978, 152, 420, 840, -770, -646, 352, -115
54393, -137, 978, 151, 420, 700, -700, -652, 358, -114
54394, -138, 979, 151, 420, 700, -700, -648, 363, -118
54395, -137, 979, 149, 490, 280, -700, -657, 354, -117
54396, -135, 980, 151, 420, 210, -700, -654, 372, -112
54397, -133, 979, 151, 350, 420, -700, -649, 361, -121
54398, -131, 979, 149, 350, 420, -700, -651, 361, -121
54399, -130, 980, 149, 420, 280, -770, -651, 366, -112
54400, -133, 978, 149, 560, 140, -910, -657, 363, -114
54401, -133, 977, 150, 490, -70, -980, -655, 367, -117
54402, -133, 977, 148, 630, -210, -1050, -642, 370, -117
54403, -132, 979, 150, 560, -140, -1120, -652, 364, -117
54404, -134, 979, 151, 210, 350, -1120, -657, 360, -117
54405, -135, 979, 151, 140, 560, -1120, -654, 349, -120
54406, -136, 978, 150, 70, 420, -1050, -652, 363, -120
54407, -127, 976, 157, 140, 560, -1050, -651, 357, -112
54408, -154, 980, 141, 210, 630, -1050, -655, 355, -115
54409, -133, 977, 157, 490, 210, -1120, -645, 352, -109
54410, -152, 977, 141, 840, -1330, -1260, -646, 367, -115
54411, -137, 978, 154, 770, -560, -1190, -649, 360, -112
54412, -140, 980, 149, 630, -280, -1120, -652, 364, -109
54413, -137, 980, 151, 140, 1050, -910, -648, 364, -114
54414, -139, 976, 146, 0, 1750, -770, -648, 363, -115
54415, -139, 982, 153, 210, 840, -840, -655, 355, -118
54416, -153, 976, 138, 350, 140, -910, -657, 358, -114
54417, -144, 978, 148, 560, -280, -980, -658, 360, -117
54418, -141, 979, 148, 630, 0, -910, -651, 369, -117
54419, -136, 979, 151, 490, 560, -840, -657, 361, -106
54420, -138, 977, 148, 490, 770, -770, -661, 363, -100
54421, -139, 976, 150, 490, 840, -770, -652, 361, -115
54422, -142, 979, 147, 350, 910, -630, -646, 363, -114
54423, -142, 981, 150, 140, 1190, -630, -660, 360, -121
54424, -140, 980, 149, 70, 1260, -490, -648, 357, -114
54425, -142, 978, 147, 0, 1120, -560, -648, 373, -111
54426, -139, 976, 148, 140, 770, -630, -652, 360, -115
54427, -139, 976, 148, 210, 630, -630, -664, 369, -108
54428, -141, 980, 149, 140, 560, -700, -652, 352, -115
54429, -138, 979, 152, 210, 420, -700, -651, 366, -111
54430, -140, 978, 152, 140, 420, -630, -654, 357, -111
54431, -137, 977, 151, 140, 700, -630, -654, 366, -111
54432, -134, 978, 150, 280, 490, -700, -655, 366, -114
54433, -138, 979, 151, 350, 770, -700, -657, 363, -117
54434, -139, 980, 150, 420, 700, -770, -652, 363, -115
54435, -143, 979, 148, 420, 490, -840, -655, 366, -115
54436, -139, 978, 148, 420, 350, -840, -658, 357, -115
54437, -137, 976, 151, 490, 140, -980, -651, 364, -112
54438, -139, 976, 150, 420, 560, -910, -651, 363, -117
54439, -139, 977, 150, 420, 770, -910, -660, 360, -103
54440, -142, 979, 149, 420, 1050, -840, -655, 361, -112
54441, -144, 979, 148, 280, 630, -840, -652, 361, -112
54442, -146, 980, 148, 420, 280, -910, -654, 363, -105
54443, -145, 978, 148, 350, -70, -980, -646, 363, -115
54444, -145, 976, 148, 420, -420, -1050, -654, 364, -111
54445, -143, 976, 149, 420, -770, -1050, -651, 366, -103
54446, -141, 977, 151, 560, -560, -1120, -649, 357, -115
54447, -140, 977, 151, 560, -420, -1120, -654, 360, -115
54448, -142, 977, 151, 630, -420, -1120, -655, 360, -109
54449, -140, 978, 152, 490, -350, -1120, -661, 363, -117
54450, -140, 979, 152, 420, -70, -1050, -646, 364, -118
54451, -144, 976, 150, 490, 140, -910, -651, 364, -111
54452, -140, 976, 152, 420, 140, -910, -643, 361, -117
54453, -140, 977, 152, 350, 420, -910, -655, 361, -109
54454, -140, 978, 151, 350, 630, -910, -654, 355, -120
54455, -143, 978, 151, 210, 910, -910, -660, 373, -120
54456, -141, 980, 148, 70, 700, -910, -654, 363, -115
54457, -140, 979, 151, 70, 840, -980, -652, 367, -114
54458, -143, 973, 151, 70, 1470, -770, -655, 364, -114
54459, -153, 971, 150, 140, 1820, -630, -652, 360, -108
54460, -156, 984, 144, 70, 770, -700, -654, 363, -114
54461, -148, 982, 144, 140, 0, -840, -649, 352, -106
54462, -145, 977, 146, 210, -630, -910, -648, 366, -108
54463, -142, 975, 149, 280, -910, -910, -645, 372, -108
54464, -142, 977, 147, 280, -770, -910, -658, 357, -111
54465, -142, 973, 146, 350, 210, -840, -649, 370, -108
54466, -145, 975, 145, 420, 350, -840, -654, 364, -115
54467, -145, 980, 144, 350, 140, -910, -643, 364, -118
54468, -145, 981, 145, 350, -70, -840, -652, 358, -117
54469, -148, 979, 145, 350, -770, -980, -654, 363, -115
54470, -147, 979, 144, 350, -840, -1050, -643, 360, -118
54471, -143, 977, 145, 560, -1260, -1120, -649, 366, -114
54472, -143, 974, 146, 630, -1400, -1260, -649, 363, -111
54473, -141, 972, 148, 700, -1400, -1330, -651, 367, -108
54474, -143, 976, 148, 420, -910, -1330, -645, 370, -114
54475, -144, 978, 149, 420, -1050, -1400, -648, 369, -111
54476, -143, 979, 148, 350, -1330, -1470, -655, 363, -114
54477, -145, 980, 149, 350, -1750, -1610, -648, 363, -117
54478, -143, 979, 150, 350, -2240, -1750, -645, 367, -117
54479, -142, 975, 151, 490, -2800, -1890, -654, 367, -99
54480, -142, 975, 150, 630, -2800, -2030, -649, 361, -108
54481, -139, 977, 151, 700, -2590, -2030, -651, 360, -115
54482, -138, 978, 150, 700, -2100, -2100, -648, 367, -112
54483, -136, 978, 150, 840, -980, -2240, -651, 361, -114
54484, -135, 978, 149, 770, -770, -2240, -657, 366, -111
54485, -136, 974, 148, 770, -490, -2310, -651, 364, -114
54486, -138, 974, 147, 840, -280, -2450, -654, 358, -117
54487, -144, 973, 146, 910, -280, -2520, -646, 360, -121
54488, -148, 974, 146, 1120, -420, -2660, -646, 364, -114
54489, -151, 976, 146, 1260, -560, -2800, -654, 363, -109
54490, -152, 975, 148, 1470, -1120, -3010, -639, 363, -120
54491, -151, 974, 150, 1260, -1470, -3080, -640, 369, -109
54492, -147, 975, 147, 1050, -2100, -3220, -643, 358, -112
54493, -133, 979, 145, 980, -3080, -3640, -651, 367, -111
54494, -136, 975, 148, 980, -2730, -3640, -652, 358, -114
54495, -146, 971, 148, 1120, -2240, -3640, -651, 363, -105
54496, -151, 970, 147, 1190, -1540, -3570, -645, 366, -118
54497, -161, 971, 149, 1540, -490, -3430, -648, 363, -109
54498, -170, 972, 152, 1330, -140, -3290, -649, 364, -108
54499, -177, 975, 153, 1050, -420, -3220, -645, 364, -108
54500, -179, 980, 152, 840, -1470, -3220, -649, 370, -108
54501, -173, 983, 151, 490, -2730, -3290, -657, 367, -106
54502, -158, 981, 147, 280, -4830, -3360, -649, 360, -105
54503, -152, 978, 146, 420, -4900, -3360, -651, 360, -106
54504, -149, 975, 146, 770, -4480, -3290, -637, 360, -112
54505, -152, 973, 144, 1120, -3500, -3150, -651, 366, -99
54506, -157, 973, 142, 1400, -2380, -2940, -652, 369, -111
54507, -176, 975, 137, 1610, -280, -2380, -646, 355, -105
54508, -186, 977, 134, 1610, 140, -2100, -646, 367, -105
54509, -191, 981, 133, 1610, -70, -1820, -636, 358, -103
54510, -189, 983, 135, 1400, -280, -1540, -648, 369, -112
54511, -184, 982, 134, 490, -70, -910, -631, 357, -96
54512, -180, 980, 134, 210, 420, -630, -643, 363, -114
54513, -176, 980, 132, 210, 700, -420, -648, 367, -120
54514, -176, 981, 132, 70, 980, -140, -642, 373, -108
54515, -175, 982, 133, 0, 1260, 70, -642, 364, -96
54516, -169, 984, 132, -350, 1680, 350, -649, 378, -103
54517, -166, 983, 132, -630, 2030, 560, -646, 361, -97
54518, -160, 979, 131, -560, 2170, 560, -642, 375, -99
54519, -154, 976, 133, -840, 2800, 700, -633, 354, -103
54520, -152, 976, 130, -840, 3290, 840, -648, 369, -97
54521, -147, 978, 128, -420, 3850, 840, -646, 361, -102
54522, -149, 979, 128, -280, 4060, 840, -637, 363, -106
54523, -151, 979, 130, -210, 4410, 770, -648, 370, -111
54524, -157, 978, 127, -210, 4340, 840, -654, 366, -109
54525, -167, 980, 125, 0, 2240, 350, -648, 366, -103
54526, -164, 982, 132, 70, 770, -70, -649, 363, -108
54527, -161, 986, 134, -630, -70, -560, -654, 360, -102
54528, -160, 984, 141, -770, 350, -560, -643, 369, -105
54529, -153, 983, 148, -1680, 1750, -560, -652, 357, -111
54530, -135, 976, 152, -3080, 2590, -910, -643, 366, -111
54531, -131, 971, 148, -3780, 6020, 280, -646, 366, -108
54532, -140, 965, 129, -2730, 4550, 350, -648, 361, -118
54533, -138, 966, 140, -1120, 6090, 140, -636, 360, -112
54534, -132, 970, 149, 280, 11480, 490, -637, 364, -105
54535, -138, 974, 142, 630, 13580, 840, -646, 357, -108
54536, -137, 974, 144, 840, 15190, 910, -648, 370, -106
54537, -146, 975, 140, 910, 16310, 1050, -652, 367, -112
54538, -157, 975, 137, 910, 16800, 1190, -645, 357, -109
54539, -178, 979, 130, 840, 16730, 1400, -649, 363, -105
54540, -182, 982, 126, 910, 16450, 1470, -655, 366, -115
54541, -180, 983, 123, 700, 16100, 1470, -657, 366, -112
54542, -170, 982, 121, 630, 16100, 1610, -637, 360, -118
54543, -156, 978, 122, 630, 16520, 1750, -636, 369, -118
54544, -139, 972, 120, 910, 19530, 2170, -646, 366, -114
54545, -138, 970, 119, 1120, 21070, 2310, -640, 361, -111
54546, -134, 970, 118, 1330, 22680, 2380, -640, 364, -118
54547, -128, 969, 119, 1610, 24500, 2520, -652, 361, -121
54548, -131, 969, 119, 2170, 28140, 2660, -640, 357, -114
54549, -158, 977, 114, 2310, 28840, 2660, -648, 367, -114
54550, -176, 983, 111, 2240, 28420, 2660, -646, 363, -126
54551, -186, 986, 109, 1960, 27230, 2660, -651, 360, -115
54552, -187, 986, 109, 1890, 26320, 2730, -642, 373, -117
54553, -204, 984, 107, 1400, 24710, 2800, -649, 361, -117
54554, -206, 983, 108, 1330, 23310, 2870, -640, 369, -114
54555, -208, 982, 109, 1120, 21560, 2940, -652, 370, -121
54556, -210, 980, 111, 910, 19530, 2940, -645, 363, -108
54557, -217, 982, 111, 630, 16870, 2940, -637, 361, -115
54558, -216, 982, 113, 210, 11130, 2590, -645, 367, -126
54559, -211, 979, 120, 70, 8400, 2310, -649, 363, -126
54560, -205, 977, 125, -140, 5390, 1960, -639, 363, -126
54561, -197, 977, 130, -210, 2240, 1610, -646, 361, -129
54562, -188, 976, 133, -560, -3920, 770, -637, 366, -126
54563, -167, 973, 139, -560, -6090, 350, -642, 363, -129
54564, -150, 971, 143, -490, -7630, -210, -652, 364, -133
54565, -139, 965, 155, -280, -8470, -630, -649, 363, -121
54566, -132, 938, 180, 280, -8330, -700, -643, 367, -129
54567, -135, 954, 170, 1400, -5250, -490, -649, 361, -118
54568, -113, 1023, 156, 980, -4690, -1050, -639, 360, -127
54569, -90, 1053, 159, 280, -4060, -1680, -637, 369, -123
54570, -97, 1008, 178, -70, -3150, -2030, -649, 366, -129
54571, -111, 950, 194, -140, -2100, -2170, -648, 367, -124
54572, -108, 956, 187, 910, 910, -2380, -655, 366, -129
54573, -126, 944, 184, 1750, 2100, -2800, -642, 366, -117
54574, -145, 918, 188, 2310, 2240, -3290, -654, 357, -124
54575, -148, 930, 191, 2800, 1470, -3850, -648, 370, -121
54576, -128, 973, 190, 2800, -350, -4760, -639, 370, -124
54577, -125, 992, 187, 2730, -700, -5180, -651, 352, -127
54578, -133, 974, 188, 2520, -770, -5600, -643, 355, -130
54579, -128, 971, 184, 2450, -280, -5950, -646, 364, -126
54580, -122, 968, 182, 2590, 630, -6300, -642, 360, -127
54581, -136, 937, 188, 3360, 2520, -6790, -640, 367, -124
54582, -143, 944, 187, 3710, 2870, -7070, -639, 358, -121
54583, -144, 964, 184, 3990, 2940, -7350, -643, 364, -112
54584, -145, 976, 181, 4200, 2730, -7700, -640, 360, -123
54585, -145, 977, 182, 4270, 2590, -8120, -640, 366, -109
54586, -127, 977, 182, 4060, 2170, -9100, -643, 363, -115
54587, -118, 978, 180, 3990, 2100, -9660, -627, 367, -115
54588, -113, 971, 181, 4060, 2240, -10220, -642, 372, -130
54589, -109, 964, 178, 4270, 2590, -10850, -639, 373, -117
54590, -93, 971, 172, 5320, 7210, -11410, -634, 361, -129
54591, -131, 947, 163, 5810, 10220, -11480, -640, 367, -115
54592, -153, 941, 146, 6230, 12250, -11690, -640, 358, -123
54593, -146, 943, 145, 6510, 13510, -11970, -640, 363, -118
54594, -158, 950, 139, 6790, 14420, -12320, -634, 366, -124
54595, -196, 1002, 149, 6860, 12180, -12810, -631, 369, -112
54596, -190, 1005, 131, 6440, 12600, -12460, -634, 357, -114
54597, -175, 987, 123, 6650, 14350, -12460, -628, 373, -112
54598, -170, 951, 137, 6790, 17640, -12040, -627, 370, -112
54599, -109, 929, 142, 7350, 23310, -11830, -634, 373, -115
54600, -30, 931, 144, 8400, 44590, -9660, -630, 370, -120
54601, -196, 936, 120, 9030, 51590, -9100, -631, 373, -135
54602, -262, 969, 123, 9380, 49210, -9660, -637, 369, -115
54603, -316, 1024, 82, 9240, 42000, -10850, -637, 372, -115
54604, -357, 988, 93, 8820, 27370, -11900, -630, 369, -129
54605, -338, 948, 83, 7280, 16100, -12670, -631, 364, -115
54606, -293, 1007, 64, 5740, 4690, -14000, -628, 378, -127
54607, -222, 1007, 75, 4760, -3920, -14560, -613, 367, -120
54608, -268, 945, 78, 4270, -8330, -14910, -619, 372, -115
54609, -193, 1006, 83, 4620, -8750, -14490, -628, 372, -114
54610, -194, 973, 94, 6160, 3220, -11620, -618, 376, -132
54611, -337, 865, 47, 7070, 13370, -9940, -622, 370, -115
54612, -375, 897, 16, 6720, 14560, -9660, -615, 367, -126
54613, -296, 1014, 13, 5740, 13160, -9940, -622, 372, -127
54614, -348, 980, 55, 3220, 4480, -9870, -619, 376, -112
54615, -346, 980, 66, 1050, -7700, -10500, -622, 372, -121
54616, -298, 1070, 48, 140, -17290, -10570, -619, 372, -106
54617, -277, 1075, 30, -210, -20930, -9870, -621, 379, -112
54618, -290, 890, 25, 350, -14630, -7280, -618, 372, -120
54619, -255, 921, -2, 630, -5950, -5670, -619, 376, -126
54620, -191, 975, -17, 1120, 7420, -3500, -616, 373, -117
54621, -211, 976, -15, 1890, 23030, -1190, -622, 373, -117
54622, -287, 942, -4, 2450, 35630, 630, -621, 369, -115
54623, -396, 985, 8, 2240, 40390, 3010, -618, 363, -115
54624, -419, 1031, -2, 1330, 34860, 4550, -618, 376, -120
54625, -425, 1029, -4, -560, 27720, 6020, -618, 370, -117
54626, -500, 1015, -22, -2800, 18340, 6790, -619, 373, -120
54627, -518, 1016, -27, -5040, 7070, 7420, -613, 366, -124
54628, -441, 998, -17, -8050, -7840, 9240, -619, 370, -120
54629, -416, 971, -7, -8680, -8120, 10570, -615, 370, -114
54630, -412, 946, 16, -8820, -8960, 11900, -625, 367, -120
54631, -391, 932, 20, -8680, -10150, 13160, -618, 370, -124
54632, -409, 937, 27, -8890, -12530, 16380, -625, 373, -130
54633, -434, 956, 22, -9730, -16940, 17990, -628, 369, -121
54634, -454, 989, 18, -11060, -22680, 18900, -625, 378, -118
54635, -439, 1025, 25, -12670, -29890, 19460, -615, 372, -136
54636, -408, 1039, 40, -14210, -36400, 19600, -624, 369, -121
54637, -321, 1005, 74, -16520, -46900, 20510, -622, 363, -124
54638, -325, 983, 82, -17290, -50190, 21350, -631, 360, -115
54639, -286, 965, 84, -17430, -51940, 22050, -631, 373, -114
54640, -269, 946, 82, -17500, -52290, 23030, -637, 367, -120
54641, -254, 933, 94, -17080, -50610, 24220, -633, 369, -112
54642, -221, 932, 117, -16170, -46550, 24640, -633, 370, -120
54643, -212, 942, 124, -15960, -45780, 25200, -624, 370, -124
54644, -182, 956, 136, -15820, -44870, 25690, -634, 373, -121
54645, -183, 971, 139, -15750, -43610, 26320, -639, 364, -126
54646, -198, 990, 136, -15960, -42560, 26880, -648, 373, -121
54647, -184, 984, 144, -16170, -43400, 26810, -649, 364, -129
54648, -172, 972, 145, -16380, -44730, 26600, -643, 364, -126
54649, -121, 958, 154, -16380, -45290, 26390, -651, 369, -111
54650, -78, 945, 164, -15890, -43540, 26250, -648, 364, -133
54651, -93, 928, 174, -14420, -38290, 26180, -657, 361, -123
54652, -104, 923, 177, -13720, -37590, 26040, -652, 360, -123
54653, -123, 929, 170, -13020, -36750, 25760, -654, 358, -123
54654, -116, 943, 172, -12460, -36470, 25270, -655, 360, -126
54655, -105, 957, 173, -12040, -37520, 24080, -654, 352, -121
54656, -90, 978, 185, -12040, -39410, 23240, -666, 355, -127
54657, -96, 983, 188, -12250, -43400, 22400, -658, 352, -120
54658, -83, 984, 186, -12390, -48510, 21070, -664, 351, -121
54659, -18, 974, 195, -12390, -51100, 19740, -666, 352, -114
54660, 131, 938, 204, -10710, -44170, 17500, -670, 352, -120
54661, 184, 923, 215, -9310, -36050, 16590, -658, 346, -121
54662, 218, 918, 220, -7770, -26320, 15890, -664, 352, -118
54663, 225, 926, 218, -6160, -16380, 15050, -667, 354, -118
54664, 209, 940, 215, -4760, -6580, 14210, -661, 355, -120
54665, 144, 969, 214, -2590, 9450, 12110, -667, 352, -120
54666, 93, 976, 207, -2030, 12460, 10780, -660, 358, -115
54667, 23, 980, 205, -1750, 12740, 9450, -672, 361, -118
54668, -76, 987, 198, -1610, 6370, 7490, -667, 348, -117
54669, -42, 972, 197, -1750, -5040, 3570, -678, 357, -117
54670, 26, 971, 186, -1750, -4690, 2240, -676, 363, -112
54671, 47, 965, 190, -1260, -3780, 1190, -670, 349, -111
54672, 60, 941, 198, -840, -1190, 630, -673, 343, -124
54673, 60, 936, 199, -210, 2450, 210, -670, 358, -118
54674, 70, 978, 186, 1120, 12880, -210, -675, 345, -126
54675, 69, 979, 181, 1960, 19110, -490, -667, 351, -123
54676, 66, 975, 180, 2520, 24710, -770, -667, 348, -115
54677, 79, 979, 175, 2940, 29540, -1120, -675, 360, -120
54678, 78, 992, 167, 3360, 34720, -1260, -678, 349, -124
54679, -90, 975, 147, 3780, 39130, -1330, -669, 349, -114
54680, -211, 971, 135, 3710, 34790, -1540, -673, 354, -124
54681, -280, 990, 122, 3220, 26950, -1750, -661, 349, -120
54682, -312, 1009, 105, 2450, 18620, -1680, -669, 352, -130
54683, -309, 1009, 106, 840, 4200, -1260, -663, 352, -129
54684, -284, 990, 118, -140, -3920, -1190, -661, 342, -127
54685, -242, 991, 122, -910, -10920, -910, -655, 355, -120
54686, -203, 1000, 127, -1610, -16030, -350, -667, 354, -123
54687, -214, 1007, 127, -2100, -20020, 350, -675, 358, -129
54688, -232, 991, 132, -2940, -26880, 1750, -661, 354, -127
54689, -226, 989, 139, -3220, -29820, 2240, -669, 358, -121
54690, -203, 988, 143, -3500, -32900, 2590, -667, 345, -126
54691, -162, 983, 154, -3920, -35420, 2870, -666, 349, -118
54692, -135, 982, 162, -4200, -37660, 3080, -672, 352, -133
54693, -105, 1000, 170, -4900, -40530, 3570, -678, 358, -118
54694, -112, 1011, 167, -5320, -42210, 3780, -670, 342, -118
54695, -113, 1006, 177, -5810, -44520, 3780, -670, 351, -123
54696, -153, 992, 171, -6090, -46760, 3780, -664, 351, -117
54697, -169, 978, 182, -6790, -57750, 3220, -678, 352, -117
54698, -206, 980, 160, -7210, -63910, 2940, -681, 352, -112
54699, -155, 977, 178, -7560, -70070, 2590, -675, 354, -115
54700, -159, 972, 182, -7630, -73990, 2240, -675, 351, -111
54701, -135, 959, 192, -7910, -79660, 1400, -682, 358, -105
54702, -59, 990, 189, -8890, -93940, -560, -667, 351, -97
54703, -5, 990, 192, -9240, -97020, -1400, -678, 340, -112
54704, 51, 980, 204, -9240, -97300, -2310, -678, 348, -97
54705, 31, 971, 199, -9100, -95900, -3080, -679, 354, -97
54706, 87, 954, 204, -8820, -94570, -3920, -678, 348, -88
54707, 162, 960, 217, -7770, -85050, -5040, -681, 348, -84
54708, 135, 963, 211, -7070, -78890, -5530, -687, 349, -90
54709, 187, 950, 222, -6440, -72380, -5810, -679, 360, -79
54710, 138, 961, 215, -5670, -64820, -6230, -673, 348, -87
54711, 149, 970, 217, -4760, -56630, -7700, -678, 352, -84
54712, 114, 969, 222, -4760, -55160, -8890, -688, 352, -70
54713, 69, 982, 212, -4830, -54950, -10150, -682, 351, -70
54714, 81, 979, 220, -4900, -55580, -11620, -684, 343, -73
54715, 76, 964, 216, -5040, -56560, -13020, -681, 357, -69
54716, 75, 984, 202, -5740, -57680, -15960, -681, 351, -75
54717, 109, 981, 210, -6090, -57610, -17360, -679, 357, -60
54718, 75, 971, 214, -6160, -56770, -18480, -672, 361, -72
54719, 46, 958, 227, -6090, -55860, -19250, -681, 358, -66
54720, -25, 962, 231, -5950, -56420, -19530, -675, 360, -67
54721, -158, 981, 217, -6230, -59920, -19180, -673, 358, -60
54722, -199, 975, 209, -6580, -62790, -18480, -679, 358, -64
54723, -222, 957, 218, -7070, -65730, -17780, -667, 352, -58
54724, -231, 957, 228, -7350, -68880, -17080, -670, 355, -54
54725, -128, 983, 242, -7490, -72940, -16100, -675, 363, -52
54726, -54, 981, 245, -7420, -73570, -16100, -669, 355, -58
54727, 12, 976, 245, -7490, -72800, -16030, -670, 360, -43
54728, 76, 976, 236, -7490, -70280, -16240, -666, 354, -54
54729, 108, 969, 236, -7560, -66360, -16450, -669, 355, -49
54730, 106, 940, 240, -7980, -60200, -17500, -676, 367, -40
54731, 56, 938, 247, -8120, -58660, -18200, -663, 358, -40
54732, 46, 955, 256, -8120, -58310, -18970, -675, 358, -43
54733, 16, 964, 266, -8120, -57120, -19530, -675, 358, -33
54734, 12, 955, 279, -7910, -55020, -19880, -669, 361, -40
54735, -63, 952, 285, -7910, -53690, -20020, -666, 363, -37
54736, -101, 959, 289, -8120, -55440, -19810, -663, 364, -36
54737, -123, 960, 296, -8470, -57610, -19810, -663, 349, -40
54738, -90, 956, 303, -8820, -59290, -19600, -661, 355, -33
54739, -19, 959, 320, -8890, -55090, -19040, -664, 354, -22
54740, 0, 957, 322, -8610, -50400, -18480, -663, 360, -36
54741, 36, 945, 322, -8120, -46270, -17710, -667, 366, -27
54742, 31, 938, 328, -7490, -41510, -16940, -651, 361, -30
54743, 47, 937, 339, -6860, -35630, -16030, -660, 358, -27
54744, 4, 931, 352, -5250, -20370, -13860, -661, 358, -27
54745, -17, 931, 356, -4340, -13440, -12810, -660, 369, -30
54746, -24, 931, 362, -3570, -7560, -11690, -658, 367, -30
54747, -43, 934, 358, -2940, -2870, -10710, -655, 363, -18
54748, -56, 940, 356, -2380, 770, -9800, -658, 369, -18
54749, -84, 941, 352, -1680, 4900, -8540, -646, 370, -24
54750, -90, 941, 348, -1470, 5320, -8120, -649, 373, -31
54751, -98, 944, 346, -1470, 4970, -7770, -649, 376, -30
54752, -110, 944, 345, -1680, 3920, -7560, -646, 361, -21
54753, -126, 945, 352, -2100, -910, -7630, -651, 370, -22
54754, -111, 945, 354, -2240, -3290, -7910, -654, 366, -19
54755, -100, 936, 352, -2170, -4620, -8120, -652, 361, -22
54756, -65, 924, 352, -2030, -5110, -8330, -649, 360, -31
54757, -52, 916, 351, -1820, -4340, -8330, -651, 363, -33
54758, -61, 938, 351, -1400, -3080, -7980, -646, 376, -22
54759, -74, 947, 355, -1330, -2800, -7840, -651, 364, -22
54760, -92, 956, 359, -1400, -2380, -7700, -648, 370, -28
54761, -100, 959, 361, -1470, -2030, -7630, -652, 369, -27
54762, -99, 951, 365, -1470, -1610, -7350, -649, 364, -24
54763, -61, 926, 356, -1260, 910, -6580, -651, 372, -27
54764, -47, 922, 354, -840, 3150, -6160, -646, 364, -27
54765, -28, 917, 353, -350, 6020, -5600, -642, 373, -21
54766, -25, 917, 358, 210, 9870, -5110, -645, 370, -31
54767, -60, 932, 356, 1330, 16240, -4060, -648, 375, -34
54768, -76, 937, 357, 1750, 18480, -3640, -651, 363, -31
54769, -102, 933, 354, 2030, 19740, -3220, -646, 378, -34
54770, -123, 927, 349, 2170, 19810, -2940, -648, 367, -33
54771, -141, 946, 348, 2170, 18830, -2730, -643, 361, -28
54772, -151, 950, 357, 1750, 14140, -2590, -652, 367, -30
54773, -138, 937, 354, 1540, 12040, -2590, -649, 373, -33
54774, -126, 935, 355, 1540, 10780, -2590, -651, 370, -31
54775, -108, 940, 356, 1610, 9590, -2520, -651, 369, -24
54776, -109, 935, 350, 1610, 7280, -2240, -654, 375, -31
54777, -125, 916, 360, 1400, 5950, -2240, -639, 367, -27
54778, -135, 911, 356, 1190, 4340, -2380, -651, 370, -30
54779, -146, 940, 355, 1190, 2520, -2450, -651, 369, -28
54780, -133, 971, 358, 980, 770, -2380, -639, 367, -28
54781, -111, 948, 364, 910, 140, -1890, -652, 369, -27
54782, -123, 944, 362, 840, 420, -1540, -642, 370, -36
54783, -117, 946, 354, 840, 490, -1190, -645, 376, -25
54784, -111, 940, 356, 980, 840, -910, -645, 372, -39
54785, -88, 920, 355, 1120, 2520, -560, -642, 379, -34
54786, -81, 909, 342, 1820, 6090, 0, -643, 370, -24
54787, -72, 947, 338, 2240, 6930, 350, -643, 376, -34
54788, -73, 970, 342, 2450, 8120, 560, -649, 369, -25
54789, -71, 969, 342, 2520, 9380, 700, -651, 370, -25
54790, -99, 956, 338, 2240, 9940, 700, -640, 366, -36
54791, -103, 951, 327, 2170, 8680, 700, -648, 375, -22
54792, -91, 942, 325, 2100, 8260, 700, -649, 363, -30
54793, -98, 908, 325, 2030, 8540, 770, -645, 370, -28
54794, -107, 916, 324, 1820, 8400, 700, -654, 378, -31
54795, -104, 969, 331, 1680, 6650, 630, -649, 367, -27
54796, -88, 970, 340, 1610, 6860, 840, -648, 369, -39
54797, -89, 958, 331, 1820, 7980, 1120, -645, 369, -36
54798, -85, 952, 342, 1960, 9310, 1470, -643, 372, -36
54799, -115, 940, 330, 2170, 10010, 1750, -649, 378, -37
54800, -119, 954, 328, 2800, 9730, 2310, -643, 367, -40
54801, -134, 934, 320, 3080, 9660, 2450, -646, 373, -28
54802, -133, 920, 316, 3080, 8750, 2730, -636, 373, -39
54803, -116, 929, 322, 2940, 7630, 2800, -649, 376, -36
54804, -104, 967, 306, 2590, 6440, 3360, -643, 375, -45
54805, -121, 959, 321, 2310, 6510, 3640, -637, 372, -28
54806, -127, 945, 325, 2100, 6300, 3780, -651, 373, -39
54807, -128, 943, 326, 2030, 6230, 3990, -645, 369, -45
54808, -117, 939, 321, 2170, 6510, 4480, -637, 367, -40
54809, -101, 904, 327, 3010, 9170, 5600, -655, 370, -33
54810, -106, 905, 325, 3430, 10780, 6230, -646, 372, -34
54811, -108, 958, 319, 3850, 11550, 6720, -643, 378, -33
54812, -111, 978, 320, 3850, 11970, 7140, -642, 378, -43
54813, -116, 976, 326, 3710, 12110, 7490, -648, 376, -37
54814, -89, 970, 323, 3360, 11760, 7980, -646, 367, -34
54815, -83, 975, 299, 3290, 11900, 8400, -657, 369, -39
54816, -84, 961, 305, 3290, 12600, 8890, -646, 372, -43
54817, -104, 938, 316, 3290, 13580, 9240, -645, 372, -36
54818, -110, 943, 311, 3430, 14280, 9870, -652, 378, -46
54819, -82, 947, 312, 3570, 15330, 10290, -646, 376, -39
54820, -89, 933, 305, 3640, 16170, 10710, -649, 370, -39
54821, -74, 953, 299, 3780, 16240, 10850, -652, 375, -46
54822, -81, 972, 296, 3570, 15820, 10850, -649, 367, -42
54823, -73, 945, 299, 3010, 15260, 11200, -651, 381, -33
54824, -66, 925, 308, 2800, 14770, 11200, -652, 373, -40
54825, -66, 956, 298, 2870, 14910, 11270, -652, 378, -51
54826, -55, 961, 300, 2730, 15470, 11480, -649, 369, -46
54827, -57, 952, 304, 2800, 16450, 11550, -660, 364, -36
54828, -52, 937, 304, 2660, 16520, 11550, -648, 370, -36
54829, -41, 946, 300, 2730, 16240, 11480, -651, 376, -33
54830, -45, 975, 298, 2730, 16520, 11480, -652, 375, -37
54831, -42, 967, 308, 2660, 16660, 11480, -658, 379, -33
54832, -53, 957, 304, 2520, 15470, 10920, -657, 382, -43
54833, -45, 972, 291, 2590, 14700, 10780, -658, 366, -31
54834, -40, 965, 289, 2590, 14560, 10780, -655, 376, -37
54835, -59, 929, 292, 2380, 14000, 10640, -657, 375, -40
54836, -75, 896, 297, 2100, 12250, 10220, -657, 373, -37
54837, -54, 931, 290, 1680, 9100, 9730, -658, 369, -28
54838, -33, 949, 301, 1680, 8750, 9800, -664, 373, -34
54839, -31, 946, 309, 1820, 9310, 9660, -663, 369, -33
54840, -20, 941, 318, 1960, 9800, 9590, -657, 372, -40
54841, -13, 945, 313, 2240, 10780, 9590, -661, 382, -27
54842, -14, 989, 296, 3150, 15190, 9940, -661, 370, -37
54843, -37, 965, 297, 3150, 16450, 10080, -660, 364, -43
54844, -66, 946, 299, 2660, 15540, 10080, -657, 360, -37
54845, -65, 962, 286, 1960, 13370, 10010, -658, 369, -28
54846, -64, 1003, 298, 770, 10430, 10150, -669, 366, -39
54847, -63, 984, 300, 280, 9660, 10290, -661, 364, -37
54848, -59, 950, 308, 140, 9030, 10220, -669, 370, -25
54849, -54, 938, 307, 70, 8610, 10290, -661, 361, -36
54850, -42, 940, 297, 420, 8120, 10290, -661, 372, -37
54851, -35, 882, 299, 1050, 8610, 10360, -660, 351, -33
54852, -30, 911, 287, 1400, 7910, 10220, -664, 358, -28
54853, -20, 949, 290, 1680, 6720, 10010, -663, 355, -31
54854, -22, 963, 303, 1750, 5880, 9870, -660, 369, -30
54855, -16, 985, 281, 1680, 5180, 9520, -658, 364, -34
54856, -43, 982, 287, 840, 2450, 8260, -658, 366, -42
54857, -34, 1006, 269, 0, -630, 7630, -658, 363, -42
54858, -29, 1004, 276, -910, -3850, 7000, -663, 369, -34
54859, -12, 984, 283, -1540, -6090, 6370, -672, 354, -40
54860, 31, 945, 292, -1540, -5460, 5110, -666, 373, -34
54861, 69, 925, 294, -700, -2730, 4830, -663, 355, -46
54862, 78, 889, 307, 210, 1610, 4690, -678, 358, -37
54863, 98, 888, 306, 1330, 5880, 4550, -661, 357, -39
54864, 88, 920, 281, 2380, 9660, 4410, -661, 367, -36
54865, 9, 927, 276, 2940, 13650, 4060, -670, 358, -42
54866, -31, 938, 272, 2380, 12040, 3570, -664, 358, -31
54867, -37, 966, 270, 1610, 9310, 2940, -661, 351, -34
54868, -36, 990, 272, 560, 6930, 2380, -664, 361, -34
54869, -14, 1002, 279, -490, 4760, 1890, -667, 357, -46
54870, 17, 1014, 313, -1120, 3570, 1400, -663, 349, -49
54871, 37, 999, 314, -490, 5740, 1470, -672, 351, -46
54872, 70, 957, 321, 770, 10010, 1680, -663, 354, -45
54873, 72, 911, 308, 2170, 15540, 1890, -673, 360, -40
54874, 37, 856, 270, 4340, 22890, 2520, -658, 348, -42
54875, -2, 848, 280, 4410, 23450, 2800, -666, 354, -43
54876, -31, 920, 263, 4200, 21700, 2660, -663, 346, -43
54877, -18, 1030, 261, 3500, 19390, 2660, -673, 358, -40
54878, -52, 1057, 294, 2590, 18130, 2450, -669, 354, -49
54879, -33, 1111, 301, 1680, 13650, 1750, -666, 354, -45
54880, 17, 1103, 279, 1260, 13020, 1890, -663, 355, -43
54881, -15, 996, 247, 840, 13510, 1890, -663, 358, -42
54882, -74, 828, 269, -70, 11130, 1820, -666, 348, -46
54883, -149, 698, 274, -1050, 4550, 1050, -666, 351, -46
54884, -32, 960, 263, -1050, -3990, 350, -658, 354, -40
54885, 16, 984, 305, 210, -280, 490, -661, 355, -40
54886, 30, 1038, 325, 1120, 1960, 490, -666, 348, -40
54887, -7, 1072, 320, 1260, 770, 0, -663, 357, -45
54888, -49, 1060, 277, 560, -4060, -840, -667, 352, -49
54889, -87, 958, 268, -70, -5880, -1190, -672, 351, -39
54890, -125, 866, 247, -1050, -9310, -1680, -658, 358, -54
54891, -140, 840, 263, -2100, -15400, -2310, -661, 352, -45
54892, -118, 897, 267, -3010, -21000, -2800, -664, 355, -55
54893, -42, 994, 308, -2940, -21490, -2870, -661, 358, -48
54894, -34, 998, 322, -2310, -18550, -2870, -664, 357, -46
54895, -29, 1013, 306, -1680, -16380, -2870, -657, 363, -46
54896, -31, 999, 301, -1540, -14980, -2660, -666, 352, -42
54897, -58, 969, 289, -1750, -15190, -2520, -660, 364, -45
54898, -55, 938, 293, -1680, -14980, -2520, -661, 361, -43
54899, -39, 933, 306, -840, -13790, -2380, -667, 366, -46
54900, -11, 932, 294, 280, -11130, -2240, -661, 354, -49
54901, -17, 905, 289, 1330, -7910, -1960, -655, 357, -45
54902, -81, 877, 269, 2100, -7350, -1960, -655, 358, -45
54903, -109, 950, 278, 1610, -10710, -2100, -663, 364, -43
54904, -100, 1037, 265, 840, -14210, -2170, -652, 357, -45
54905, -105, 1059, 280, 0, -16730, -2310, -664, 358, -37
54906, -111, 1067, 293, -1120, -19880, -2590, -655, 357, -46
54907, -69, 1040, 312, -2660, -23660, -2800, -660, 358, -37
54908, -35, 995, 302, -2450, -21630, -2590, -655, 366, -42
54909, -5, 915, 291, -1820, -16940, -2100, -664, 363, -43
54910, -16, 832, 299, -910, -10990, -1470, -657, 363, -34
54911, -8, 817, 281, 350, -2940, -280, -655, 373, -37
54912, 6, 943, 282, 700, 70, 420, -654, 358, -34
54913, 1, 1042, 289, 840, 3080, 980, -655, 370, -37
54914, 5, 1077, 304, 910, 5950, 1470, -661, 360, -36
54915, -16, 1066, 329, 700, 7910, 1610, -663, 363, -34
54916, 36, 1016, 281, 700, 10780, 1960, -663, 357, -39
54917, 33, 901, 267, 910, 13370, 2100, -661, 364, -27
54918, 19, 820, 259, 840, 14840, 2240, -663, 360, -33
54919, -4, 786, 260, 910, 14490, 2170, -666, 360, -25
54920, 20, 828, 284, 980, 14420, 2170, -663, 363, -37
54921, 55, 1022, 292, 2170, 18270, 2310, -657, 361, -24
54922, 46, 1063, 300, 2450, 20930, 2310, -655, 366, -39
54923, 29, 1069, 308, 2310, 20720, 2100, -660, 364, -30
54924, 20, 1063, 277, 1820, 19040, 2030, -654, 358, -27
54925, -9, 986, 287, 700, 15960, 1610, -664, 361, -37
54926, -34, 839, 271, 630, 15470, 1400, -660, 357, -28
54927, 0, 832, 278, 1050, 15470, 1330, -663, 361, -37
54928, 32, 876, 283, 1470, 16100, 1470, -655, 355, -34
54929, 41, 919, 281, 2100, 17640, 1750, -658, 358, -40
54930, -2, 1044, 311, 2660, 20090, 1960, -666, 367, -36
54931, -14, 1072, 306, 2310, 18410, 1890, -661, 358, -34
54932, -26, 1064, 293, 1890, 16730, 1540, -655, 352, -34
54933, -22, 1019, 300, 1260, 14280, 1470, -660, 354, -57
54934, -27, 954, 281, 560, 11830, 1260, -661, 354, -39
54935, -43, 872, 285, -70, 7420, 840, -661, 363, -36
54936, -35, 872, 288, -70, 6370, 630, -645, 352, -42
54937, -21, 904, 295, 350, 6930, 490, -657, 361, -43
54938, -3, 961, 292, 560, 7840, 560, -663, 351, -49
54939, 9, 981, 308, 140, 7700, 560, -654, 360, -39
54940, -2, 1052, 334, -140, 6720, 490, -654, 357, -37
54941, 10, 1061, 299, -280, 8190, 630, -658, 352, -39
54942, 4, 1006, 286, -70, 10850, 980, -655, 361, -43
54943, -37, 898, 291, -280, 12740, 1400, -658, 352, -40
54944, -88, 899, 290, -1190, 7840, 1750, -655, 358, -34
54945, -62, 971, 282, -1330, 6370, 1960, -655, 357, -37
54946, -62, 979, 299, -1050, 7490, 2380, -657, 357, -39
54947, -59, 940, 307, -770, 7840, 2660, -660, 355, -34
54948, -55, 933, 323, -560, 6230, 2520, -654, 358, -39
54949, -18, 981, 297, -700, 2590, 2660, -655, 358, -33
54950, -40, 984, 314, -490, 1610, 2520, -654, 358, -39
54951, -45, 1017, 295, -280, 350, 2240, -651, 348, -40
54952, -29, 1039, 306, -140, -210, 1890, -655, 360, -40
54953, -34, 930, 260, -2100, -4830, 1120, -663, 349, -37
54954, -160, 871, 301, -3360, -12740, -140, -651, 348, -39
54955, -49, 944, 282, -4130, -19670, -840, -657, 352, -42
54956, -18, 971, 286, -3780, -17570, -1050, -658, 355, -33
54957, -18, 870, 279, -2940, -12740, -1120, -645, 352, -40
54958, -62, 845, 338, -2590, -14000, -2310, -655, 358, -37
54959, -9, 1030, 314, -2240, -16660, -2590, -654, 357, -37
54960, 85, 1141, 357, -980, -13440, -2380, -655, 357, -39
54961, 75, 1085, 335, 630, -5110, -2170, -651, 363, -33
54962, 28, 927, 314, 1890, 1680, -2240, -658, 355, -40
54963, -40, 888, 247, 770, -2870, -3360, -652, 360, -36
54964, -36, 966, 246, -700, -7980, -3710, -663, 366, -40
54965, -78, 996, 262, -2590, -11690, -4200, -651, 361, -37
54966, -90, 1001, 295, -3850, -15680, -5110, -654, 366, -30
54967, 2, 1027, 331, -4340, -17080, -6860, -652, 360, -40
54968, 101, 999, 326, -2940, -11270, -7070, -661, 366, -27
54969, 135, 908, 333, -1400, -2310, -6720, -654, 367, -43
54970, 150, 855, 307, -210, 5950, -6580, -657, 367, -36
54971, 79, 854, 299, 490, 11060, -6580, -657, 367, -22
54972, 88, 971, 286, 840, 18340, -6300, -648, 370, -27
54973, 109, 970, 299, 1330, 24290, -5810, -658, 373, -30
54974, 124, 917, 325, 1960, 31850, -5320, -651, 367, -25
54975, 138, 883, 298, 2660, 38220, -4830, -657, 364, -19
54976, 134, 911, 320, 3570, 43330, -4200, -657, 373, -25
54977, 119, 1079, 287, 5180, 52430, -2660, -652, 373, -24
54978, 74, 1092, 285, 5250, 53550, -2310, -658, 367, -12
54979, 1, 1027, 302, 4340, 51100, -2450, -652, 363, -19
54980, -45, 972, 262, 2870, 44660, -2940, -654, 363, -25
54981, -20, 903, 273, 1120, 32480, -3640, -643, 366, -22
54982, -50, 808, 252, 1050, 29820, -3920, -646, 357, -27
54983, -64, 854, 279, 1190, 26600, -4130, -648, 361, -18
54984, -58, 915, 306, 1190, 23240, -4410, -651, 358, -22
54985, -38, 1013, 320, 1260, 19460, -4340, -649, 351, -18
54986, -33, 955, 337, 1820, 16100, -4270, -655, 369, -24
54987, -74, 874, 287, 2240, 16240, -4410, -658, 372, -15
54988, -73, 798, 274, 2660, 14840, -4480, -649, 361, -28
54989, -104, 825, 269, 2380, 13510, -4480, -658, 369, -19
54990, -69, 909, 256, 1610, 11060, -4200, -651, 370, -31
54991, -57, 1069, 315, 210, 9660, -3640, -651, 360, -27
54992, 32, 1175, 326, 280, 13090, -2800, -654, 367, -34
54993, 60, 1169, 315, 910, 22260, -1400, -663, 360, -24
54994, 31, 1050, 300, 1540, 31640, 0, -654, 372, -18
54995, -24, 826, 275, 2100, 40530, 2800, -657, 370, -28
54996, 14, 817, 242, 2380, 44240, 4760, -663, 360, -31
54997, 58, 820, 231, 3150, 51240, 7000, -654, 373, -31
54998, 17, 848, 239, 3780, 58800, 9240, -657, 369, -27
54999, -2, 949, 256, 3990, 63070, 11130, -664, 372, -28
55000, 6, 1271, 275, 2800, 59430, 13860, -658, 372, -39
55001, -36, 1282, 258, 1820, 57890, 14770, -661, 376, -27
55002, -54, 1176, 247, 700, 54460, 15610, -658, 372, -43
55003, -151, 1008, 229, -700, 47670, 15820, -666, 373, -33
55004, -166, 916, 214, -2170, 36330, 16030, -666, 369, -39
55005, -245, 839, 174, -4830, 14840, 16450, -669, 378, -40
55006, -355, 797, 212, -6090, 3010, 15960, -669, 375, -51
55007, -325, 875, 278, -6440, -11760, 15470, -675, 375, -48
55008, -259, 1032, 269, -5950, -20790, 15260, -666, 372, -42
55009, -183, 1038, 241, -3290, -23240, 15470, -678, 385, -48
55010, -280, 969, 259, -3570, -30940, 14700, -675, 385, -52
55011, -346, 1029, 214, -5740, -44660, 13440, -684, 385, -40
55012, -323, 1081, 209, -8120, -59850, 12390, -673, 385, -49
55013, -352, 1057, 204, -9940, -69650, 11550, -687, 370, -43
55014, -346, 889, 211, -11760, -80220, 9450, -679, 384, -39
55015, -282, 874, 240, -11830, -81480, 8680, -691, 379, -28
55016, -239, 888, 249, -11550, -82530, 8050, -678, 384, -28
55017, -176, 872, 299, -10500, -80850, 7560, -682, 385, -25
55018, -90, 895, 311, -8400, -63210, 7350, -687, 376, -28
55019, 8, 833, 284, -2660, -50820, 7630, -687, 388, -16
55020, 18, 822, 319, -560, -40740, 7770, -684, 375, -22
55021, 8, 969, 279, 280, -35420, 7980, -685, 376, -18
55022, 43, 1120, 274, -140, -32060, 8260, -690, 375, -16
55023, -85, 1047, 282, -3010, -30100, 7280, -690, 379, -18
55024, -70, 1003, 288, -4480, -31710, 6300, -697, 379, -21
55025, 24, 966, 294, -4760, -30520, 5740, -697, 373, -13
55026, 82, 950, 283, -3500, -24360, 5740, -694, 378, -21
55027, 157, 940, 310, -980, -13930, 6090, -696, 385, -16
55028, 105, 908, 298, 2800, 2870, 6790, -694, 372, -21
55029, 77, 954, 248, 2940, 3430, 6440, -688, 372, -10
55030, 35, 889, 245, 2310, 1260, 5810, -690, 378, -13
55031, -43, 903, 221, 1330, -2940, 4620, -700, 376, -22
55032, 28, 995, 217, -2170, -10430, 2310, -697, 372, -12
55033, -96, 864, 224, -4760, -17850, 700, -700, 375, -18
55034, -128, 847, 296, -7000, -29470, -1470, -702, 370, -16
55035, -8, 988, 325, -7770, -36120, -3360, -697, 372, -9
55036, 94, 1111, 317, -6510, -33600, -4340, -693, 369, -13
55037, 133, 882, 389, -1330, -15470, -6090, -694, 370, -19
55038, 181, 822, 342, 490, -10780, -7560, -697, 373, -15
55039, 223, 860, 284, 1680, -6580, -8540, -693, 366, -25
55040, 263, 876, 223, 2240, -420, -9380, -699, 375, -13
55041, 229, 836, 237, 2170, 6300, -9940, -697, 375, -16
55042, 153, 1062, 296, -140, 9590, -12180, -691, 382, -12
55043, 145, 1208, 283, -1680, 10710, -13020, -691, 376, -13
55044, 221, 1116, 317, -2240, 15540, -13370, -705, 381, -19
55045, 185, 955, 344, -1750, 21700, -13790, -696, 382, -13
55046, 267, 898, 320, 1680, 36890, -14280, -700, 381, -22
55047, 285, 787, 299, 3780, 44870, -14350, -709, 384, -18
55048, 268, 714, 337, 6370, 49210, -14840, -700, 387, -39
55049, 282, 717, 303, 8610, 53830, -15120, -700, 382, -31
55050, 333, 744, 284, 11130, 60270, -14910, -699, 387, -31
55051, 259, 931, 252, 13860, 73290, -14000, -711, 385, -43
55052, 54, 887, 282, 12180, 68880, -14490, -694, 390, -37
55053, -4, 1185, 297, 9310, 55090, -15470, -702, 387, -37
55054, -18, 1545, 218, 6090, 45570, -16100, -690, 397, -36
55055, 21, 1663, 279, 3080, 39340, -16170, -702, 394, -48
55056, -157, 936, 327, -3290, 23450, -17430, -693, 397, -57
55057, -97, 761, 294, -4200, 13790, -17640, -697, 394, -39
55058, -22, 679, 243, -2940, 15120, -16450, -690, 396, -46
55059, 62, 531, 270, 560, 27720, -14560, -687, 384, -46
55060, -25, 513, 300, 6440, 45080, -11340, -693, 396, -45
55061, -22, 1155, 314, 7070, 42560, -9590, -688, 390, -49
55062, 20, 1429, 317, 6020, 40740, -7980, -703, 396, -55
55063, -126, 1417, 298, 3990, 38080, -7000, -690, 385, -57
55064, -235, 1183, 313, 910, 30240, -6930, -696, 400, -57
55065, -291, 916, 241, -4130, 4480, -6930, -694, 385, -64
55066, -247, 832, 239, -4550, 210, -5670, -694, 390, -60
55067, -212, 710, 304, -3570, -70, -4410, -684, 376, -57
55068, -217, 703, 314, -1820, 1890, -3150, -687, 382, -64
55069, -196, 776, 330, 420, 3080, -1890, -705, 391, -54
55070, -111, 1166, 290, 4200, 10920, 1680, -681, 376, -67
55071, -228, 1165, 256, 3710, 11900, 3290, -688, 387, -70
55072, -363, 1070, 280, 1120, 2590, 3850, -702, 382, -67
55073, -408, 1125, 271, -2730, -13510, 4200, -688, 382, -64
55074, -458, 1080, 208, -9100, -36890, 5320, -688, 373, -69
55075, -497, 849, 243, -10780, -42560, 5530, -690, 369, -72
55076, -489, 668, 298, -11830, -49630, 5320, -694, 382, -64
55077, -360, 684, 292, -11200, -56420, 5530, -702, 379, -60
55078, -256, 798, 307, -8750, -54110, 6580, -696, 382, -70
55079, -114, 926, 370, -980, -27580, 9940, -699, 379, -66
55080, -145, 1003, 334, 1400, -17430, 11270, -696, 379, -69
55081, -188, 1031, 318, 1680, -16380, 12530, -694, 373, -64
55082, -196, 1131, 272, 280, -20580, 13510, -699, 384, -64
55083, -263, 1162, 214, -2380, -23800, 14560, -702, 379, -73
55084, -407, 848, 269, -8750, -36470, 14840, -697, 375, -69
55085, -327, 803, 304, -10290, -44940, 14350, -699, 381, -64
55086, -173, 970, 311, -9240, -46480, 14350, -696, 387, -66
55087, 45, 1121, 288, -5950, -35000, 15400, -699, 373, -61
55088, -20, 907, 337, -980, -9520, 16450, -703, 390, -72
55089, -102, 828, 300, -1610, -14000, 15470, -708, 373, -76
55090, -118, 962, 224, -3500, -23870, 14700, -700, 379, -72
55091, -94, 1149, 183, -5740, -28280, 14700, -702, 385, -64
55092, -211, 782, 346, -7910, -28210, 14420, -703, 378, -60
55093, 56, 940, 332, -4830, -32340, 12040, -712, 376, -54
55094, 237, 959, 292, -770, -13860, 13090, -709, 384, -67
55095, 190, 864, 348, 3290, 7490, 14700, -705, 381, -67
55096, 172, 1026, 319, 4760, 16590, 14700, -721, 366, -67
55097, 94, 1116, 359, 3290, 10990, 14070, -706, 381, -57
55098, 128, 960, 257, -700, 2660, 13790, -706, 370, -66
55099, 98, 748, 211, -70, 10850, 13720, -709, 372, -67
55100, 59, 552, 267, 1120, 20790, 13860, -714, 361, -69
55101, 93, 708, 258, 2520, 23730, 13370, -711, 370, -75
55102, 255, 1134, 293, 4130, 24710, 13510, -717, 358, -63
55103, 261, 1121, 295, 4760, 28980, 13580, -705, 366, -60
55104, 167, 1141, 245, 4970, 30870, 12950, -706, 363, -70
55105, 93, 1060, 260, 3430, 26950, 11760, -708, 355, -78
55106, 8, 944, 245, 1330, 17640, 10220, -705, 361, -78
55107, 41, 965, 218, -1890, -2870, 6930, -703, 358, -82
55108, 47, 940, 238, -2030, -3710, 5670, -708, 357, -87
55109, 91, 851, 278, -1260, -3430, 4060, -715, 355, -79
55110, 101, 873, 275, -350, -3150, 2450, -703, 355, -81
55111, 193, 979, 268, 840, -2940, 1400, -705, 364, -79
55112, 117, 1027, 246, 1820, 840, -210, -709, 357, -75
55113, 43, 1008, 226, 840, -1890, -1610, -702, 363, -85
55114, -48, 946, 248, -1120, -9170, -3220, -706, 363, -87
55115, -84, 964, 193, -3290, -18480, -4970, -709, 352, -85
55116, -152, 867, 196, -5740, -27370, -8050, -709, 357, -72
55117, -116, 754, 273, -6090, -33180, -10080, -697, 354, -78
55118, -33, 862, 321, -4830, -39130, -12390, -714, 355, -85
55119, 154, 1096, 327, -2380, -34440, -14070, -708, 372, -88
55120, 269, 1236, 240, 770, -21630, -14910, -708, 354, -75
55121, 20, 822, 293, 1960, -10080, -17500, -703, 372, -73
55122, -65, 864, 248, 0, -23730, -19950, -702, 367, -79
55123, 10, 1110, 203, -1680, -33320, -22050, -700, 366, -76
55124, 13, 1212, 213, -2660, -29890, -23380, -705, 370, -75
55125, -58, 1043, 216, -3640, -24290, -24850, -696, 375, -64
55126, -108, 664, 383, -6370, -38290, -29470, -699, 363, -73
55127, 105, 948, 246, -5600, -38780, -30870, -694, 369, -64
55128, 196, 1025, 207, -3080, -22120, -30520, -694, 367, -69
55129, 157, 818, 349, -490, -3150, -30730, -691, 367, -66
55130, 63, 550, 376, 700, -4690, -34020, -690, 367, -64
55131, 349, 878, 340, 3640, 1960, -35070, -699, 369, -58
55132, 581, 1247, 260, 8330, 28350, -33740, -696, 366, -67
55133, 444, 1040, 255, 12460, 62650, -31640, -691, 367, -63
55134, 171, 845, 263, 13300, 76510, -30310, -681, 369, -67
55135, -95, 1112, 216, 3150, 37380, -30520, -681, 361, -72
55136, -57, 1311, 246, -560, 25200, -30240, -676, 366, -72
55137, 49, 1276, 236, -1400, 32760, -29680, -669, 363, -70
55138, -106, 869, 266, -700, 42630, -29190, -672, 361, -69
55139, -99, 495, 383, 700, 32410, -30240, -664, 367, -69
55140, 253, 880, 257, 5810, 34510, -29400, -675, 358, -75
55141, 229, 951, 227, 10010, 49140, -27860, -664, 358, -70
55142, 71, 761, 289, 12740, 60340, -27020, -667, 360, -75
55143, -198, 709, 280, 12670, 52360, -27580, -652, 366, -91
55144, -186, 1398, 205, 5880, 12950, -29050, -664, 366, -78
55145, -255, 1435, 212, 2590, 4270, -29400, -657, 375, -82
55146, -385, 1184, 267, -560, -3710, -30170, -663, 369, -79
55147, -502, 885, 296, -3220, -16870, -31710, -658, 378, -70
55148, -399, 806, 293, -4900, -31290, -33180, -652, 376, -85
55149, -242, 603, 250, -3010, -29750, -33950, -655, 378, -73
55150, -141, 558, 323, 560, -22050, -34090, -649, 372, -73
55151, -78, 729, 289, 3990, -12600, -33600, -654, 378, -85
55152, -34, 956, 301, 6790, -2240, -32620, -651, 382, -81
55153, -65, 1072, 368, 8120, 13580, -29750, -649, 382, -75
55154, -204, 1291, 246, 7210, 14630, -27720, -652, 391, -73
55155, -285, 1288, 252, 4340, 18130, -25480, -645, 384, -75
55156, -386, 1158, 219, 980, 15400, -23730, -645, 388, -70
55157, -476, 904, 204, -2310, 7490, -22820, -642, 378, -64
55158, -237, 776, 278, -3710, -1540, -21070, -645, 385, -64
55159, -113, 828, 222, -560, 7280, -19180, -636, 385, -67
55160, -100, 778, 258, 3570, 19460, -17710, -645, 378, -70
55161, -208, 686, 289, 6650, 26390, -17080, -634, 370, -61
55162, -170, 756, 279, 8400, 24640, -16380, -633, 379, -61
55163, -178, 1286, 157, 8190, 17920, -14770, -640, 373, -70
55164, -287, 1281, 180, 4760, 15960, -13930, -637, 384, -61
55165, -455, 1103, 205, 350, 3640, -14560, -636, 379, -60
55166, -558, 1069, 199, -4340, -13860, -15540, -634, 376, -63
55167, -445, 1025, 242, -7490, -22400, -15400, -631, 372, -63
55168, -191, 864, 203, -4690, -12040, -13860, -627, 379, -67
55169, -168, 597, 297, -630, 6580, -12950, -622, 376, -69
55170, -88, 568, 315, 3220, 18550, -11620, -637, 376, -60
55171, -12, 771, 176, 6160, 28560, -10220, -628, 379, -66
55172, -48, 1090, 181, 7700, 44450, -7000, -633, 372, -67
55173, -118, 1165, 180, 5390, 43400, -6090, -631, 378, -57
55174, -248, 1359, 116, 1680, 34580, -5880, -628, 375, -54
55175, -311, 1457, 160, -2660, 21630, -6090, -624, 379, -63
55176, -335, 1379, 177, -6930, 11620, -6580, -621, 382, -81
55177, -209, 815, 131, -10010, -1120, -9170, -627, 375, -64
55178, -143, 645, 172, -9170, 1610, -10010, -622, 372, -72
55179, 7, 523, 206, -6790, 8890, -10640, -630, 384, -63
55180, 113, 531, 206, -2520, 19670, -10500, -634, 382, -66
55181, 103, 732, 167, 5880, 44730, -10080, -622, 382, -75
55182, 42, 1170, 174, 6860, 52360, -9870, -633, 394, -72
55183, -97, 1250, 169, 5180, 48580, -10710, -627, 387, -67
55184, -263, 1360, 157, 1260, 33880, -12040, -628, 393, -66
55185, -270, 1418, 148, -3780, 16170, -13510, -631, 387, -72
55186, -400, 891, 107, -12460, -9660, -16800, -621, 390, -60
55187, -435, 638, 186, -14770, -18550, -18760, -627, 382, -63
55188, -276, 562, 192, -14280, -24290, -20230, -631, 388, -66
55189, -176, 541, 217, -10780, -21140, -20510, -627, 384, -63
55190, 33, 523, 251, -4410, -8750, -20370, -627, 396, -57
55191, 114, 689, 266, 9450, 33950, -17920, -622, 382, -52
55192, -34, 1013, 184, 13300, 50820, -17220, -615, 382, -61
55193, -47, 1273, 162, 13440, 57470, -17080, -607, 385, -66
55194, -164, 1413, 129, 10220, 52640, -18550, -616, 376, -61
55195, -269, 1270, 164, -3500, 15820, -23170, -619, 384, -63
55196, -260, 1181, 132, -8610, -2660, -25200, -619, 382, -61
55197, -223, 1032, 131, -10850, -5250, -25690, -613, 393, -64
55198, -311, 769, 221, -10570, 1050, -24570, -615, 381, -78
55199, -284, 572, 292, -7980, 14700, -22680, -618, 379, -72
55200, -155, 745, 225, 2030, 38290, -18410, -618, 375, -76
55201, -175, 748, 260, 6790, 50050, -16520, -603, 385, -67
55202, -139, 810, 254, 9380, 59710, -14910, -615, 375, -63
55203, -241, 899, 165, 9310, 58100, -13930, -612, 393, -72
55204, -389, 1000, 174, 6720, 47460, -13720, -610, 388, -73
55205, -419, 1450, 118, -2030, 18690, -13440, -612, 385, -79
55206, -459, 1440, 170, -6510, 7560, -13300, -609, 391, -82
55207, -574, 1143, 257, -10150, 910, -14070, -600, 396, -79
55208, -569, 1173, 146, -11970, -7910, -14070, -613, 393, -79
55209, -425, 909, 287, -10710, -7630, -13300, -603, 391, -76
55210, -445, 576, 267, -8330, -3360, -13090, -598, 385, -81
55211, -455, 383, 237, -5180, -6370, -12670, -606, 394, -84
55212, -386, 245, 174, -2590, -5040, -11970, -606, 397, -81
55213, -439, 297, 224, 0, -6300, -11340, -606, 399, -85
55214, -486, 1022, 188, 2660, -9100, -10500, -610, 397, -84
55215, -534, 1367, 262, 1750, -12530, -10780, -601, 403, -78
55216, -622, 1445, 318, -1190, -16310, -10640, -607, 387, -84
55217, -589, 1313, 312, -4130, -22470, -10990, -600, 403, -75
55218, -530, 1152, 282, -6440, -27650, -10430, -604, 397, -76
55219, -439, 783, 256, -7000, -9170, -5950, -604, 394, -81
55220, -492, 515, 198, -4900, 4060, -3150, -603, 391, -73
55221, -345, 319, 272, -2170, 12320, -350, -601, 394, -72
55222, -330, 409, 294, 210, 19810, 1960, -612, 387, -81
55223, -306, 1096, 254, 3640, 26180, 4830, -598, 382, -84
55224, -400, 1278, 339, 3360, 20860, 4970, -598, 381, -87
55225, -515, 1306, 381, 1750, 13650, 4620, -604, 391, -79
55226, -490, 1328, 293, -70, 3010, 4550, -603, 379, -81
55227, -444, 1303, 234, -2100, -3290, 4900, -598, 381, -85
55228, -540, 710, 234, -7980, -9240, 5670, -601, 385, -84
55229, -487, 639, 234, -9800, -14630, 5740, -609, 393, -85
55230, -303, 727, 255, -9450, -14420, 6300, -601, 385, -85
55231, -189, 816, 297, -6720, -2380, 7840, -601, 387, -91
55232, -149, 879, 360, -2660, 14210, 9450, -600, 385, -84
55233, -167, 1015, 324, 3010, 37030, 11130, -612, 394, -84
55234, -216, 1080, 245, 2450, 40530, 11760, -607, 387, -105
55235, -339, 1028, 223, 140, 37030, 12040, -610, 391, -84
55236, -308, 933, 190, -3290, 29890, 12740, -606, 394, -85
55237, -359, 834, 237, -9590, 7980, 12880, -607, 399, -91
55238, -286, 937, 290, -9590, 2380, 12530, -607, 388, -105
55239, -188, 1082, 361, -7210, 6510, 13090, -612, 403, -91
55240, -86, 1071, 336, -3290, 24220, 13720, -610, 400, -93
55241, -187, 842, 258, 1050, 33460, 14280, -610, 405, -97
55242, -264, 435, 194, 4830, 41860, 14770, -609, 403, -100
55243, -231, 740, 82, 3290, 39620, 15400, -612, 397, -97
55244, -340, 910, 86, -70, 29610, 14560, -618, 394, -103
55245, -399, 1122, 61, -5390, 9380, 13090, -606, 393, -90
55246, -321, 797, 348, -11690, -11200, 10220, -616, 384, -96
55247, -76, 465, 387, -10430, -33250, 5880, -616, 390, -94
55248, 19, 255, 295, -1400, -12460, 7140, -618, 387, -97
55249, 743, -131, 337, 9800, 17360, 12110, -604, 391, -91
55250, 156, -176, 198, 21070, 53060, 14560, -606, 385, -94
55251, 132, -41, 141, 37100, 89390, 18760, -615, 393, -96
55252, 318, 410, 43, 41440, 97860, 20580, -619, 378, -90
55253, -154, 862, 71, 42840, 119980, 18130, -616, 384, -114
55254, -376, 1526, 40, 40880, 115850, 14770, -606, 390, -93
55255, -475, 3478, -75, 33600, 105980, 7280, -613, 391, -82
55256, -568, 3721, 175, -2450, 16730, -3780, -609, 390, -93
55257, -721, 1841, 224, -23450, -70280, -6160, -615, 384, -88
55258, -555, 735, 68, -37030, -128730, -5180, -610, 379, -97
55259, -147, 638, -173, -38220, -144270, 1330, -625, 390, -90
55260, 680, 568, -169, -31430, -69510, 12110, -603, 390, -99
55261, -98, -647, 447, -19530, -65660, 12110, -609, 385, -115
55262, -388, -213, 257, -11550, -78960, 8540, -616, 390, -97
55263, 464, 546, 192, 210, -67200, 9170, -619, 390, -90
55264, 571, 1085, 29, 12810, -15260, 10780, -616, 384, -102
55265, -780, -148, 245, 22260, 44240, 3080, -621, 385, -93
55266, -727, 237, 174, 20300, 12390, -6720, -622, 396, -91
55267, -1278, 1568, -64, 16240, -11200, -12740, -621, 394, -90
55268, -896, 2725, -170, 11970, -14210, -18410, -615, 396, -88
55269, -1423, 3692, -324, 2730, -16450, -25130, -609, 396, -82
55270, -1760, 1538, 103, -40460, -140140, -37870, -619, 405, -100
55271, -1501, 855, 23, -62020, -232750, -42140, -612, 402, -87
55272, -378, 1050, -130, -68320, -287840, -42000, -613, 400, -87
55273, 98, 850, -184, -61810, -253960, -38430, -609, 397, -85
55274, 960, 375, -157, -45990, -124810, -25690, -610, 391, -91
55275, -546, -1042, 359, -48300, -139370, -24290, -606, 394, -91
55276, -631, -689, 122, -51100, -176470, -26950, -613, 400, -87
55277, 179, -168, -11, -47740, -195790, -26390, -606, 387, -93
55278, 855, -96, 216, -38150, -162400, -26320, -606, 388, -90
55279, 1195, 310, 495, 560, -44380, -26880, -607, 390, -93
55280, 284, 678, 699, 22400, 38010, -31850, -603, 399, -85
55281, -489, 1187, 748, 39060, 121660, -37940, -607, 388, -87
55282, -1751, 1771, 630, 44800, 190050, -46760, -595, 399, -87
55283, -2036, 1380, 621, 40810, 191240, -57680, -600, 390, -91
55284, -1014, 1054, 189, 14070, 65100, -70000, -592, 394, -88
55285, -812, 1559, -164, 8120, 21770, -70280, -592, 396, -88
55286, 426, 1555, -51, 9240, 29260, -66010, -585, 397, -93
55287, 466, 712, -13, 12600, 68250, -60270, -579, 390, -100
55288, 261, 71, 40, 10640, 87150, -56070, -579, 390, -87
55289, 47, 13, 98, 9730, 63910, -56910, -574, 397, -93
55290, 460, 503, 186, 16310, 65660, -56840, -576, 402, -90
55291, 673, 1483, -97, 29190, 84420, -51590, -561, 393, -103
55292, 179, 2244, -18, 37170, 138250, -48440, -561, 403, -88
55293, 221, 1198, 12, 27440, 207060, -47110, -561, 400, -100
55294, -843, 735, -99, 18200, 193060, -44940, -558, 400, -93
55295, -1258, 1401, -16, 10570, 130060, -41930, -558, 396, -90
55296, -689, 2006, -158, 9660, 74550, -37590, -547, 411, -88
55297, 134, 1282, -123, 7490, 66990, -29890, -550, 400, -87
55298, -394, 342, 177, -2520, 60900, -25480, -555, 409, -91
55299, -383, 993, 12, -3290, 33810, -24360, -552, 408, -99
55300, -125, 1377, -160, 3150, 21140, -22120, -537, 415, -81
55301, -46, 1030, -71, 8120, 34160, -20930, -540, 400, -84
55302, 15, 601, 94, 9030, 50470, -22960, -541, 411, -91
55303, -1012, 1216, -153, 5040, 27300, -25200, -537, 402, -90
55304, -975, 1446, -219, 2240, 11270, -30170, -532, 391, -85
55305, -964, 1153, -184, -2310, -8050, -33180, -526, 399, -88
55306, -930, 466, 41, -8610, -26740, -37100, -529, 400, -76
55307, -371, 1360, -194, -18690, -95690, -39200, -531, 396, -84
55308, -1195, 2266, -367, -23730, -113120, -43050, -531, 396, -96
55309, -1652, 2266, -274, -33110, -133770, -52570, -523, 403, -96
55310, -2096, 1176, 38, -45920, -184870, -64190, -520, 390, -100
55311, -1611, 187, 152, -58660, -255150, -75390, -522, 396, -108
55312, 341, 320, -122, -59850, -347480, -85260, -526, 391, -121
55313, 219, 729, -148, -49000, -327880, -85540, -516, 393, -124
55314, 917, 474, -20, -40110, -289310, -84280, -511, 385, -130
55315, 493, 233, 6, -30730, -240240, -84630, -516, 387, -136
55316, 899, 486, 153, -20580, -119560, -79450, -510, 388, -148
55317, 424, 396, 319, -17780, -52920, -74760, -498, 396, -141
55318, -457, 398, 330, -13720, 23520, -71540, -504, 382, -142
55319, -93, 175, 204, -9100, 75040, -67410, -493, 375, -139
55320, -776, 84, 191, -6860, 105630, -64190, -484, 385, -142
55321, -803, 295, 40, -5880, 98000, -59430, -496, 376, -141
55322, -225, 401, 80, -4340, 89250, -58240, -475, 379, -147
55323, -835, 383, 200, -2870, 113750, -60830, -480, 381, -145
55324, -609, 294, 250, 910, 141330, -60900, -469, 382, -141
55325, -850, 319, 230, 4760, 187950, -66080, -468, 375, -142
55326, -347, -11, 272, 19460, 220220, -79660, -462, 378, -142
55327, -234, 748, -100, 35420, 217070, -82180, -450, 375, -127
55328, 258, 918, -156, 51170, 228060, -79450, -448, 372, -123
55329, 116, 689, -238, 63140, 258440, -71890, -438, 376, -112
55330, -790, 86, -286, 62160, 311150, -59430, -441, 373, -111
55331, -218, 665, -213, 57400, 300020, -52640, -439, 378, -82
55332, -739, 1760, -668, 58100, 311500, -47460, -441, 378, -81
55333, -1063, 2615, -726, 59220, 306670, -41580, -436, 373, -60
55334, -2017, 2661, -854, 51800, 298830, -44380, -427, 363, -51
55335, -1337, 1275, -663, 18760, 192780, -57680, -427, 366, -36
55336, -1408, 1049, -366, 8400, 135030, -56490, -421, 360, -46
55337, -1032, 564, -21, 6580, 75880, -53760, -418, 366, -39
55338, -867, 513, -254, 7420, 14630, -48300, -417, 351, -36
55339, -37, 211, -52, 3570, -21490, -45710, -411, 369, -27
55340, -346, 438, -124, -9730, -80850, -50120, -405, 352, -22
55341, -554, 952, -396, -9450, -105770, -51030, -400, 354, -33
55342, -326, 1160, -530, -9800, -127330, -51240, -408, 351, -45
55343, -1153, 1248, -649, -14070, -124110, -55720, -396, 345, -54
55344, -2258, 944, -642, -34790, -187810, -78540, -387, 340, -63
55345, -1491, 738, -504, -39550, -230510, -86380, -396, 334, -76
55346, -680, 639, -403, -40950, -239190, -88970, -381, 342, -94
55347, -283, 414, -307, -40040, -218960, -85680, -382, 339, -102
55348, 13, 192, -216, -37730, -167510, -81410, -379, 328, -105
55349, -495, 140, -204, -30310, -78120, -70140, -384, 333, -117
55350, -631, 210, -219, -26530, -58520, -64050, -373, 321, -129
55351, -57, 248, -386, -21350, -27300, -57820, -375, 325, -142
55352, 129, 111, -587, -13230, 12950, -46970, -379, 315, -126
55353, -61, 201, -771, -4830, 63560, -38780, -370, 327, -130
55354, -1385, 391, -742, 8680, 121240, -32480, -363, 318, -121
55355, -2787, 524, -805, 13020, 126210, -39760, -361, 315, -112
55356, -1553, 521, -783, 18340, 165340, -46690, -354, 306, -121
55357, -802, 304, -632, 25900, 205450, -46410, -364, 324, -93
55358, -992, 152, -544, 33040, 242620, -41090, -357, 319, -88
55359, -549, 173, -510, 34230, 240100, -39410, -343, 304, -90
55360, -743, 320, -638, 35000, 231420, -35350, -352, 292, -58
55361, -473, 341, -548, 35070, 226100, -30730, -348, 298, -51
55362, -914, 378, -699, 33950, 222880, -27160, -352, 307, -43
55363, -839, 386, -855, 30100, 200340, -22330, -346, 297, -33
55364, -871, 436, -878, 28140, 185850, -19810, -358, 303, -13
55365, -1010, 505, -918, 26320, 174300, -20580, -352, 312, -4
55366, -1253, 551, -1099, 24430, 152950, -22680, -354, 306, 1
55367, -1206, 540, -1202, 23100, 127540, -28490, -345, 291, -6
55368, -852, 553, -1238, 21770, 85750, -40810, -348, 300, 13
55369, -720, 438, -1198, 21770, 77070, -45500, -348, 291, 24
55370, -497, 248, -1041, 22890, 72380, -49280, -354, 288, 28
55371, -585, 127, -957, 24150, 68390, -52500, -352, 285, 30
55372, -474, -23, -747, 26460, 53970, -58310, -340, 285, 30
55373, -578, -40, -700, 27160, 40600, -61040, -342, 271, 36
55374, -808, 19, -609, 27510, 23660, -64820, -343, 274, 37
55375, -880, 134, -477, 27650, 5040, -68460, -340, 280, 30
55376, -799, 214, -353, 28560, -5600, -71890, -342, 264, 34
55377, -726, 208, -172, 31640, -11690, -77560, -327, 261, 34
55378, -813, 233, -176, 33460, -11410, -81130, -327, 256, 37
55379, -823, 239, -163, 35700, -10640, -85190, -325, 253, 39
55380, -716, 212, -171, 38710, -6300, -89460, -316, 246, 37
55381, -566, 155, -173, 41790, 17710, -95480, -319, 241, 37
55382, 2945, 417, 623, 51870, 96950, -104440, -310, 238, 27
55383, -3997, -251, -2364, -142730, 876540, 225820, -310, 238, 66
55384, -3997, -2709, -3997, 64960, -466200, 497560, -346, 253, 84
55385, -1822, 3348, 1685, 490, 67620, -110250, -333, 249, 84
55386, 188, 2910, -1890, 15260, 18760, -174860, -328, 252, 61
55387, 478, -1330, -1603, 21700, -27440, 14420, -334, 246, 78
55388, -1790, 402, 577, -14070, 189910, -82530, -330, 246, 82
55389, -1937, -710, -3997, 29960, -195090, -20160, -324, 243, 82
55390, 61, 1878, 235, -12740, 122150, -58800, -327, 246, 88
55391, -1092, 480, -169, -29050, 174580, -13860, -327, 244, 78
55392, -149, -107, -622, 20580, -196210, -20230, -324, 229, 73
55393, -1474, 498, -719, -28630, 137830, -3150, -324, 249, 75
55394, 942, 478, 336, 17990, -157150, -16870, -322, 244, 60
55395, -2232, 417, -1608, 7210, -42840, -5530, -331, 234, 81
55396, -2290, 4, -1519, -5530, 12390, -3850, -324, 229, 76
55397, -367, 163, 22, -3850, -16100, -3080, -322, 235, 66
55398, -1031, 162, -688, -1260, -31990, -910, -328, 235, 69
55399, -475, 30, -278, -1470, -2240, 2240, -319, 241, 79
55400, -676, 239, -266, 1540, 6580, -1400, -324, 252, 70
55401, -1064, 238, -565, 2030, -280, -70, -328, 237, 64
55402, -710, 171, -400, 910, 8960, 1120, -321, 250, 67
55403, -863, 173, -445, 1540, -3220, -560, -324, 237, 67
55404, -1085, 308, -580, -910, 8680, 140, -322, 247, 73
55405, -963, 199, -553, -560, -2800, -140, -324, 246, 72
55406, -723, 137, -313, -840, -280, -280, -325, 246, 72
55407, -886, 219, -426, -490, -4970, -420, -319, 243, 69
55408, -883, 192, -424, -980, 3920, 770, -319, 229, 66
55409, -841, 189, -486, 700, 3780, -210, -333, 228, 64
55410, -818, 174, -406, 910, 140, -280, -318, 240, 79
55411, -880, 207, -413, 140, 280, 350, -324, 241, 72
55412, -867, 252, -448, -490, 700, 210, -312, 234, 72
55413, -871, 241, -504, -420, -840, -70, -327, 238, 67
55414, -860, 156, -419, 0, -700, -350, -322, 235, 79
55415, -888, 167, -397, -280, -280, 140, -322, 241, 81
55416, -833, 216, -444, -420, -350, 350, -322, 232, 70
55417, -884, 218, -491, 70, 420, -70, -318, 241, 64
55418, -865, 214, -490, 490, 1540, -420, -321, 235, 72
55419, -871, 192, -424, -70, 630, 140, -333, 238, 78
55420, -850, 202, -432, -420, -770, 280, -318, 235, 70
55421, -875, 243, -514, -350, -630, 0, -321, 241, 79
55422, -881, 196, -463, 0, 210, -420, -324, 232, 73
55423, -878, 184, -442, -70, 630, 140, -321, 238, 70
55424, -839, 209, -448, -210, -420, 210, -325, 246, 76
55425, -881, 219, -480, -70, 700, 70, -327, 238, 75
55426, -881, 225, -486, 280, 420, -420, -319, 232, 78
55427, -893, 177, -436, 280, 840, -210, -324, 246, 78
55428, -853, 195, -437, -420, -490, 280, -324, 249, 69
55429, -870, 229, -481, -210, -350, -70, -318, 238, 82
55430, -881, 208, -470, 70, 350, -210, -327, 246, 64
55431, -884, 181, -443, 210, 420, -280, -309, 241, 76
55432, -857, 170, -420, 0, 490, 70, -324, 238, 64
55433, -871, 228, -477, -140, 210, 70, -324, 241, 66
55434, -884, 213, -468, 140, 70, -280, -324, 234, 70
55435, -879, 189, -453, 70, 490, -210, -319, 237, 75
55436, -862, 171, -420, -70, -140, -70, -321, 235, 72
55437, -858, 213, -457, -70, 0, 70, -319, 243, 66
55438, -874, 217, -475, 140, 280, -210, -319, 234, 70
55439, -882, 182, -443, 140, 560, -280, -318, 235, 75
55440, -862, 185, -439, 70, 210, -70, -316, 237, 82
55441, -868, 191, -437, -70, 0, 140, -321, 238, 79
55442, -879, 205, -460, 0, 140, -210, -325, 232, 70
55443, -873, 196, -455, 140, 280, -280, -327, 247, 67
55444, -871, 175, -429, 0, 210, -70, -322, 244, 67
55445, -865, 199, -450, -70, -70, 70, -316, 234, 78
55446, -868, 206, -453, -70, 140, 0, -327, 243, 73
55447, -877, 190, -448, 70, 490, -210, -316, 238, 70
55448, -870, 189, -442, 0, 0, -70, -324, 235, 76
55449, -869, 192, -444, -140, 70, 70, -318, 246, 76
55450, -865, 210, -457, 0, -140, 0, -324, 235, 75
55451, -874, 196, -452, 70, 140, -210, -324, 244, 69
55452, -872, 187, -444, 0, 280, -70, -316, 235, 73
55453, -870, 195, -447, 0, 70, 0, -319, 241, 67
55454, -866, 207, -457, -140, 140, 0, -322, 244, 76
55455, -871, 206, -455, 0, 140, -140, -319, 249, 67
55456, -873, 188, -442, 0, 140, -140, -315, 234, 67
55457, -868, 197, -451, -70, 70, 0, -313, 238, 76
55458, -869, 201, -450, -70, 0, -70, -322, 232, 70
55459, -869, 208, -458, 0, 210, -70, -318, 243, 66
55460, -872, 195, -448, 70, 280, -70, -325, 240, 70
55461, -872, 193, -445, 0, 140, -70, -315, 243, 73
55462, -867, 206, -457, -70, 70, 0, -316, 237, 73
55463, -871, 199, -451, 0, 140, -140, -319, 249, 72
55464, -869, 201, -453, 70, 210, -70, -325, 240, 73
55465, -870, 200, -453, 0, 140, -70, -318, 235, 78
55466, -871, 198, -449, 0, 140, -70, -318, 240, 63
55467, -868, 204, -455, 70, 70, -140, -322, 246, 73
55468, -872, 196, -447, 0, 210, -70, -322, 241, 72
55469, -870, 198, -451, 0, 140, -70, -322, 246, 78
55470, -869, 202, -454, 0, 70, -70, -321, 234, 66
55471, -870, 199, -450, 0, 210, -70, -321, 238, 72
55472, -869, 200, -451, -70, 140, -70, -322, 226, 75
55473, -872, 197, -450, -70, 280, 0, -318, 243, 76
55474, -870, 198, -451, 0, 140, -140, -321, 237, 64
55475, -871, 199, -451, 0, 140, -70, -327, 243, 72
55476, -871, 199, -450, -70, 210, -70, -316, 243, 61
55477, -871, 198, -449, 0, 140, -70, -325, 243, 72
55478, -871, 198, -453, 0, 210, -140, -324, 235, 67
55479, -869, 200, -451, 0, 210, -70, -325, 238, 79
55480, -871, 198, -449, 0, 140, -70, -313, 240, 70
55481, -870, 198, -452, 0, 140, -70, -325, 240, 72
55482, -870, 198, -449, 0, 140, -70, -316, 244, 78
55483, -870, 200, -453, 0, 140, -70, -319, 238, 73
55484, -870, 199, -452, 0, 210, -70, -321, 243, 70
55485, -871, 197, -449, -70, 140, 0, -321, 238, 70
55486, -870, 199, -452, 0, 210, -70, -322, 234, 69
55487, -871, 198, -448, -70, 210, -70, -316, 237, 75
55488, -870, 200, -452, -70, 140, -70, -324, 241, 75
55489, -870, 199, -451, 0, 140, -70, -321, 234, 69
55490, -870, 197, -450, -70, 140, -70, -319, 235, 63
55491, -870, 200, -452, 0, 210, -70, -315, 229, 82
55492, -870, 198, -450, 0, 210, -70, -327, 244, 76
55493, -871, 198, -450, 0, 210, -70, -321, 231, 72
55494, -870, 200, -452, 0, 140, -70, -318, 234, 70
55495, -870, 198, -450, -70, 210, -70, -328, 232, 72
55496, -870, 199, -451, -70, 140, -70, -319, 241, 66
55497, -870, 198, -450, 70, 210, -70, -322, 240, 64
55498, -871, 198, -451, 0, 140, -70, -324, 252, 75
55499, -871, 199, -450, -70, 140, -70, -322, 237, 72
55500, -870, 198, -450, -70, 140, -70, -319, 235, 70
55501, -870, 199, -450, 0, 140, -70, -324, 253, 78
55502, -870, 198, -451, 0, 140, -70, -325, 243, 67
55503, -870, 198, -450, -70, 140, -70, -318, 240, 72
55504, -870, 198, -451, 0, 140, -70, -313, 244, 72
55505, -870, 199, -451, 0, 140, -70, -319, 246, 73
55506, -869, 198, -451, 0, 210, -70, -318, 241, 72
55507, -871, 198, -450, 0, 140, -70, -333, 238, 70
55508, -870, 199, -451, 0, 140, -70, -328, 237, 67
55509, -870, 198, -451, 0, 210, -70, -319, 244, 76
55510, -869, 199, -451, 0, 210, -70, -315, 249, 67
55511, -871, 198, -450, 70, 140, -70, -313, 231, 72
55512, -871, 198, -451, 0, 70, -70, -310, 249, 69
55513, -871, 198, -452, 0, 140, -70, -325, 240, 73
55514, -871, 198, -451, 0, 140, -70, -315, 238, 78
55515, -870, 199, -451, -70, 140, -70, -324, 234, 66
55516, -871, 198, -450, -70, 210, -140, -318, 249, 82
55517, -871, 198, -450, -70, 210, -70, -316, 246, 63
55518, -871, 199, -451, 0, 140, -70, -333, 243, 76
55519, -870, 199, -451, 0, 140, -70, -321, 241, 73
55520, -871, 199, -451, 70, 140, -70, -330, 237, 64
55521, -871, 198, -450, 0, 140, -70, -318, 238, 73
55522, -871, 198, -451, 70, 140, -70, -325, 238, 72
55523, -871, 199, -451, 0, 140, -70, -325, 243, 67
55524, -870, 199, -451, 0, 140, -70, -328, 241, 73
55525, -871, 199, -451, 0, 210, -70, -313, 243, 78
55526, -872, 198, -450, 0, 140, -70, -316, 234, 69
55527, -871, 198, -450, 0, 70, -70, -315, 240, 78
55528, -870, 199, -450, 0, 140, -70, -318, 237, 75
55529, -871, 198, -451, 0, 140, -70, -325, 246, 69
55530, -870, 198, -450, -70, 210, -70, -327, 240, 72
55531, -870, 198, -450, 0, 210, -70, -330, 243, 79
55532, -870, 199, -451, 0, 210, -70, -316, 238, 61
55533, -870, 198, -452, 0, 140, -70, -325, 244, 73
55534, -871, 199, -451, 0, 140, -70, -321, 253, 75
55535, -870, 199, -450, 0, 140, -70, -319, 241, 78
55536, -871, 199, -450, -70, 70, -140, -327, 241, 60
55537, -870, 198, -451, 0, 140, -70, -315, 246, 75
55538, -870, 198, -451, 0, 140, -70, -324, 243, 75
55539, -870, 199, -450, 0, 140, -70, -328, 253, 78
55540, -870, 199, -450, -70, 210, -70, -321, 237, 67
55541, -870, 198, -451, 0, 140, -70, -324, 234, 75
55542, -871, 198, -451, -70, 140, -70, -324, 244, 72
55543, -871, 198, -451, 0, 140, -70, -331, 241, 79
55544, -870, 198, -451, 0, 140, -70, -322, 243, 75
55545, -870, 199, -450, 0, 140, -70, -319, 246, 69
55546, -870, 198, -450, -70, 140, -70, -328, 234, 73
55547, -870, 198, -450, 0, 140, -70, -325, 247, 67
55548, -870, 199, -451, -70, 140, -70, -319, 249, 66
55549, -870, 198, -450, -70, 140, -70, -322, 237, 67
55550, -870, 198, -450, 0, 140, -70, -325, 238, 76
55551, -870, 198, -449, 0, 70, -70, -324, 238, 75
55552, -870, 199, -450, 0, 140, -70, -310, 247, 70
55553, -870, 198, -450, 0, 210, -70, -331, 244, 79
55554, -871, 198, -450, 0, 210, -70, -318, 237, 73
55555, -871, 198, -450, 0, 140, -70, -322, 237, 73
55556, -870, 198, -450, 0, 140, -70, -319, 240, 69
55557, -870, 198, -450, 0, 210, -70, -319, 244, 67
55558, -870, 199, -450, -70, 210, -70, -315, 232, 72
55559, -871, 200, -450, 0, 210, -70, -312, 241, 73
55560, -871, 198, -450, -70, 140, -70, -324, 229, 73
55561, -871, 198, -452, 0, 210, -140, -330, 247, 79
55562, -870, 199, -450, -70, 210, -70, -330, 229, 76
55563, -870, 199, -451, -70, 70, -70, -325, 234, 64
55564, -871, 198, -450, 0, 140, -70, -325, 238, 67
55565, -871, 199, -450, 0, 210, -140, -316, 240, 76
55566, -870, 199, -450, 0, 140, -70, -319, 241, 81
55567, -870, 199, -450, 0, 210, -70, -322, 243, 76
55568, -870, 199, -450, 0, 140, -70, -316, 238, 73
55569, -871, 199, -451, 70, 140, -70, -330, 240, 78
55570, -870, 198, -451, 0, 140, -70, -312, 238, 64
55571, -870, 199, -451, 0, 210, -70, -319, 246, 78
55572, -871, 198, -451, 70, 210, -70, -325, 241, 66
55573, -870, 199, -451, 0, 70, -70, -319, 244, 70
55574, -871, 198, -451, 0, 140, -140, -327, 232, 63
55575, -871, 198, -450, 0, 210, -70, -333, 235, 73
55576, -871, 199, -450, 0, 140, -70, -324, 243, 70
55577, -870, 199, -449, 70, 210, -70, -315, 247, 75
55578, -870, 199, -450, -70, 210, -70, -310, 235, 78
55579, -871, 198, -450, -70, 140, -70, -324, 240, 75
55580, -871, 198, -451, 0, 210, -70, -318, 240, 76
55581, -870, 198, -450, -70, 210, 0, -324, 244, 72
55582, -871, 198, -451, 0, 140, -70, -318, 238, 72
55583, -870, 198, -451, 70, 140, -70, -324, 244, 64
55584, -870, 199, -450, 0, 140, -70, -322, 232, 69
55585, -869, 198, -451, 0, 140, -70, -321, 238, 75
55586, -871, 200, -450, 0, 210, -70, -328, 241, 73
55587, -872, 199, -451, 0, 140, 0, -327, 247, 78
55588, -870, 198, -451, 0, 140, -70, -319, 240, 75
55589, -871, 198, -450, -70, 70, -70, -322, 237, 76
55590, -871, 199, -451, 0, 140, -70, -324, 244, 67
55591, -871, 198, -450, 0, 140, -140, -313, 238, 70
55592, -871, 199, -450, 0, 70, -70, -321, 234, 67
55593, -871, 198, -451, 0, 210, -70, -322, 243, 63
55594, -871, 199, -450, 0, 210, -70, -331, 237, 75
55595, -870, 199, -449, 0, 140, -70, -322, 246, 79
55596, -870, 199, -450, 0, 140, -70, -336, 241, 73
55597, -871, 199, -450, 0, 140, -70, -321, 246, 78
55598, -871, 199, -450, 0, 210, -70, -325, 247, 67
55599, -871, 199, -451, 0, 140, -140, -334, 235, 76
55600, -870, 199, -451, -70, 140, -70, -328, 240, 73
55601, -871, 199, -451, 0, 70, -140, -331, 249, 76
55602, -870, 199, -450, 0, 140, -70, -321, 244, 75
55603, -871, 199, -450, 0, 140, -70, -322, 237, 67
55604, -870, 199, -450, 0, 210, -70, -328, 247, 72
55605, -870, 198, -450, 0, 140, -70, -318, 243, 76
55606, -871, 199, -451, 0, 210, -70, -322, 250, 76
55607, -871, 199, -451, 0, 140, -70, -331, 228, 75
55608, -870, 198, -451, 70, 140, -70, -322, 238, 81
55609, -870, 198, -450, 0, 210, -70, -316, 231, 69
55610, -870, 198, -450, 0, 140, -70, -324, 244, 72
55611, -870, 199, -450, -70, 140, -70, -319, 246, 75
55612, -871, 198, -450, 0, 140, -70, -327, 235, 81
55613, -870, 199, -449, 0, 140, -70, -319, 240, 64
55614, -870, 198, -451, -70, 210, 0, -318, 246, 61
55615, -870, 199, -451, 0, 210, -70, -321, 235, 69
55616, -871, 199, -452, 0, 210, -70, -319, 244, 73
55617, -871, 199, -450, -70, 140, -70, -327, 249, 76
55618, -870, 198, -451, -70, 210, -70, -327, 237, 75
55619, -870, 198, -451, 0, 140, -70, -319, 241, 70
55620, -870, 199, -450, 0, 140, -70, -328, 247, 73
55621, -871, 198, -451, -70, 210, -70, -315, 235, 72
55622, -870, 199, -451, -70, 140, -70, -322, 231, 72
55623, -871, 198, -450, 0, 210, -70, -327, 234, 75
55624, -871, 198, -450, -70, 210, -70, -322, 249, 76
55625, -870, 198, -449, 0, 210, 0, -325, 237, 70
55626, -870, 199, -450, 0, 140, -70, -321, 247, 69
55627, -871, 198, -450, 0, 210, -70, -334, 244, 66
55628, -871, 199, -451, 0, 140, -70, -324, 241, 81
55629, -871, 198, -451, -70, 140, 0, -324, 240, 75
55630, -871, 198, -451, 0, 140, -70, -321, 243, 72
55631, -872, 199, -451, 0, 140, -70, -319, 241, 78
55632, -871, 199, -450, 70, 210, -70, -315, 247, 70
55633, -870, 199, -451, 0, 140, -70, -319, 240, 72
55634, -871, 198, -450, -70, 140, -70, -324, 241, 81
55635, -871, 198, -450, -70, 140, -70, -316, 241, 69
55636, -871, 198, -451, 0, 210, -140, -325, 243, 79
55637, -871, 199, -451, -70, 210, -70, -322, 247, 79
55638, -870, 198, -451, -70, 140, -70, -322, 244, 67
55639, -871, 198, -450, 0, 140, -70, -324, 240, 78
55640, -871, 199, -450, -70, 210, -140, -330, 238, 61
55641, -871, 198, -451, 0, 210, -70, -331, 246, 73
55642, -871, 199, -451, 0, 140, -70, -322, 235, 73
55643, -870, 198, -450, 0, 140, -70, -324, 247, 79
55644, -870, 198, -451, 0, 140, -70, -322, 240, 63
55645, -871, 199, -451, 0, 140, -70, -322, 243, 78
55646, -870, 199, -451, 0, 140, -70, -312, 235, 79
55647, -870, 198, -450, 0, 210, -70, -312, 238, 79
55648, -870, 199, -450, 0, 70, -70, -328, 243, 73
55649, -871, 198, -450, -70, 140, -70, -322, 241, 69
55650, -870, 198, -451, 0, 140, -70, -325, 232, 67
55651, -870, 198, -451, 0, 210, -140, -327, 241, 72
55652, -870, 198, -452, 70, 210, -70, -325, 247, 70
55653, -871, 199, -451, 70, 140, -70, -318, 235, 72
55654, -870, 199, -451, 70, 210, -70, -319, 240, 73
55655, -870, 198, -450, 0, 210, -70, -318, 250, 72
55656, -870, 198, -449, 70, 140, -70, -324, 240, 69
55657, -869, 199, -450, 0, 140, -70, -330, 237, 78
55658, -870, 199, -449, 0, 140, -70, -325, 238, 64
55659, -870, 198, -450, 0, 140, -70, -324, 235, 78
55660, -871, 198, -451, 0, 70, -70, -325, 235, 75
55661, -869, 199, -451, 0, 140, -70, -316, 229, 57
55662, -871, 199, -453, 0, 210, -70, -318, 238, 76
55663, -874, 198, -447, -70, 0, -70, -322, 235, 66
55664, -871, 200, -449, -70, -140, -140, -316, 237, 69
55665, -865, 199, -449, 0, 420, -70, -330, 243, 72
55666, -876, 196, -452, 0, 210, -70, -327, 237, 64
55667, -873, 202, -452, 0, 70, -70, -325, 244, 79
55668, -868, 203, -451, -70, 70, -70, -324, 238, 70
55669, -870, 197, -448, -70, 140, -70, -325, 237, 69
55670, -870, 198, -451, 0, 140, -70, -309, 235, 64
55671, -871, 198, -450, 0, 280, -70, -315, 228, 67
55672, -872, 198, -450, 0, 280, -70, -319, 241, 75
55673, -869, 199, -449, 0, 210, -140, -328, 238, 81
55674, -870, 200, -452, 0, 140, -70, -327, 234, 73
55675, -871, 197, -449, -70, 0, -70, -319, 244, 69
55676, -869, 199, -450, -70, 70, -70, -319, 237, 78
55677, -870, 199, -450, 0, 210, -70, -319, 243, 84
55678, -871, 198, -450, 70, 210, -70, -325, 255, 78
55679, -870, 199, -452, 0, 140, 0, -321, 243, 70
55680, -872, 199, -452, 70, 140, 0, -324, 240, 69
55681, -871, 198, -450, 0, 70, -70, -318, 234, 61
55682, -869, 198, -448, 0, 70, -70, -324, 235, 67
55683, -870, 198, -450, 0, 210, -70, -327, 238, 79
55684, -871, 199, -451, 0, 210, -70, -325, 231, 75
55685, -870, 198, -451, 70, 210, -70, -316, 243, 76
55686, -871, 199, -451, -70, 140, -70, -330, 241, 72
55687, -871, 199, -450, 0, 140, -70, -316, 244, 73
55688, -870, 198, -449, 0, 210, -70, -319, 244, 73
55689, -871, 198, -451, 0, 210, -70, -319, 249, 84
55690, -872, 199, -449, 0, 210, -70, -321, 238, 73
55691, -870, 199, -451, 0, 70, -70, -321, 238, 64
55692, -870, 199, -449, 0, 140, -70, -321, 247, 70
55693, -870, 198, -450, 0, 140, -140, -316, 238, 84
55694, -870, 198, -449, -70, 210, -70, -321, 235, 70
55695, -871, 198, -450, -70, 210, -70, -319, 234, 73
55696, -871, 199, -450, 0, 140, -70, -327, 238, 70
55697, -870, 199, -451, 0, 210, 0, -321, 232, 72
55698, -871, 199, -450, 0, 140, -70, -322, 246, 75
55699, -870, 198, -451, 0, 70, -70, -315, 240, 76
55700, -870, 198, -449, 0, 140, -70, -315, 249, 64
55701, -871, 198, -450, 0, 140, -70, -318, 241, 61
55702, -871, 199, -450, 0, 140, -70, -312, 247, 72
55703, -870, 199, -450, 70, 140, -70, -316, 243, 84
55704, -870, 199, -450, 0, 140, -70, -321, 243, 76
55705, -870, 199, -451, 0, 210, -140, -315, 235, 79
55706, -871, 198, -449, 0, 140, -70, -331, 237, 70
55707, -870, 199, -449, -70, 280, -70, -328, 238, 67
55708, -870, 198, -450, -70, 210, -70, -322, 243, 78
55709, -870, 199, -450, 0, 210, -70, -325, 238, 78
55710, -871, 199, -451, 0, 140, -70, -315, 243, 64
55711, -871, 199, -450, -70, 70, -70, -322, 240, 78
55712, -871, 199, -450, -70, 210, -70, -324, 244, 76
55713, -870, 199, -450, 0, 140, -140, -324, 244, 73
55714, -871, 199, -450, 0, 210, -70, -319, 237, 76
55715, -871, 199, -450, 0, 70, -70, -315, 238, 72
55716, -870, 199, -450, 70, 140, -70, -322, 249, 72
55717, -871, 198, -450, 0, 140, -70, -321, 244, 67
55718, -870, 198, -451, 70, 140, -70, -319, 241, 72
55719, -870, 198, -450, 0, 140, -70, -319, 241, 63
55720, -871, 198, -451, -70, 140, -70, -327, 247, 72
55721, -870, 199, -451, 70, 210, -70, -313, 241, 72
55722, -871, 199, -450, 0, 210, -70, -325, 235, 64
55723, -871, 199, -450, 0, 210, -70, -324, 244, 72
55724, -871, 199, -450, 0, 140, 0, -325, 240, 66
55725, -871, 199, -450, 70, 140, -140, -313, 232, 73
55726, -871, 199, -450, 0, 140, -70, -328, 243, 61
55727, -871, 199, -450, -70, 70, -70, -322, 246, 66
55728, -871, 199, -450, 0, 210, -140, -321, 249, 76
55729, -871, 198, -451, 0, 210, -70, -316, 241, 72
55730, -870, 198, -450, 70, 140, -70, -315, 240, 75
55731, -870, 199, -450, 70, 140, -70, -318, 244, 70
55732, -871, 198, -451, 0, 140, -70, -324, 241, 76
55733, -870, 199, -451, 0, 210, -70, -316, 235, 67
55734, -871, 199, -450, 0, 210, -70, -327, 240, 78
55735, -870, 199, -450, 0, 210, -140, -327, 237, 69
55736, -871, 198, -450, 0, 70, -70, -325, 240, 66
55737, -871, 199, -451, 0, 210, -70, -327, 238, 73
55738, -870, 198, -451, -70, 210, -70, -324, 235, 75
55739, -871, 199, -450, -70, 140, -70, -331, 244, 70
55740, -870, 198, -450, -70, 210, -70, -319, 234, 72
55741, -870, 199, -450, 0, 210, -70, -315, 247, 67
55742, -871, 199, -450, 0, 140, -140, -313, 240, 69
55743, -871, 199, -451, -70, 140, -70, -319, 247, 63
55744, -870, 199, -449, 0, 140, -70, -322, 238, 63
55745, -871, 199, -450, 0, 140, -70, -316, 249, 72
55746, -871, 198, -451, 0, 140, -70, -331, 241, 64
55747, -871, 198, -451, 0, 210, -70, -310, 241, 78
55748, -871, 199, -450, 0, 140, -70, -319, 235, 79
55749, -871, 199, -450, 0, 140, -70, -321, 238, 76
55750, -871, 198, -450, 0, 140, -70, -319, 247, 69
55751, -871, 198, -450, 0, 140, -70, -321, 235, 81
55752, -870, 199, -450, -70, 210, -70, -325, 244, 70
55753, -871, 198, -450, 0, 210, -70, -322, 238, 75
55754, -871, 198, -449, 0, 140, -70, -325, 240, 75
55755, -871, 198, -451, -70, 140, -70, -325, 240, 73
55756, -870, 198, -450, 0, 140, -70, -318, 237, 76
55757, -870, 199, -449, 0, 140, -70, -319, 240, 72
55758, -871, 198, -449, 70, 140, -140, -321, 234, 72
55759, -871, 199, -451, 0, 140, -70, -318, 241, 64
55760, -871, 199, -450, 0, 210, -70, -321, 241, 70
55761, -871, 199, -451, 0, 140, -70, -321, 243, 67
55762, -871, 199, -450, 0, 140, -70, -321, 240, 66
55763, -871, 199, -450, 70, 210, -70, -318, 240, 72
55764, -870, 199, -450, 0, 210, 0, -321, 241, 64
55765, -871, 199, -450, -70, 140, -70, -322, 247, 72
55766, -870, 199, -449, -70, 210, -70, -319, 231, 67
55767, -872, 198, -449, 0, 140, -70, -316, 237, 76
55768, -871, 199, -450, 0, 140, -70, -315, 240, 76
55769, -871, 198, -450, 0, 210, -70, -315, 232, 67
55770, -870, 199, -450, 70, 140, -70, -315, 237, 75
55771, -871, 198, -450, 0, 140, -70, -313, 241, 73
55772, -870, 198, -450, 70, 140, -70, -322, 241, 69
55773, -871, 199, -451, 0, 210, -70, -327, 243, 81
55774, -871, 199, -450, 70, 70, -70, -313, 247, 72
55775, -871, 198, -450, 0, 140, -70, -321, 246, 70
55776, -870, 199, -450, 70, 140, -70, -316, 228, 76
55777, -871, 199, -450, 0, 140, -70, -321, 237, 70
55778, -871, 199, -450, 70, 210, -70, -319, 235, 75
55779, -871, 198, -450, -70, 140, -70, -321, 243, 73
55780, -870, 199, -450, 0, 140, -70, -325, 231, 66
55781, -871, 199, -451, 0, 140, -70, -319, 235, 85
55782, -871, 198, -450, 70, 140, -70, -316, 229, 69
55783, -870, 198, -450, -70, 140, -70, -330, 238, 75
55784, -871, 199, -450, -70, 210, -70, -321, 243, 69
55785, -872, 198, -451, 0, 140, -70, -321, 250, 76
55786, -871, 199, -450, 0, 140, -140, -321, 234, 66
55787, -870, 198, -450, 0, 140, -70, -316, 247, 78
55788, -871, 198, -450, 0, 140, -70, -322, 241, 67
55789, -871, 198, -450, 0, 140, -70, -322, 241, 69
55790, -871, 199, -451, 0, 70, -70, -319, 240, 63
55791, -871, 198, -451, 0, 140, -70, -310, 240, 72
55792, -871, 198, -451, 0, 140, -70, -321, 240, 73
55793, -870, 199, -452, 0, 140, -70, -312, 246, 69
55794, -871, 199, -450, 0, 210, -70, -321, 232, 67
55795, -870, 198, -451, -70, 140, -140, -321, 244, 76
55796, -871, 199, -451, 0, 140, -70, -315, 243, 61
55797, -871, 199, -449, 0, 70, -70, -319, 232, 70
55798, -871, 199, -450, 0, 210, -70, -316, 234, 64
55799, -870, 199, -450, 0, 210, -70, -330, 234, 73
55800, -870, 199, -451, 0, 210, -70, -313, 231, 70
55801, -871, 198, -450, 0, 210, -70, -316, 244, 72
55802, -870, 198, -449, 70, 140, -70, -318, 244, 78
55803, -871, 199, -450, 0, 140, -70, -324, 240, 81
55804, -870, 199, -450, 0, 210, -70, -324, 243, 70
55805, -871, 198, -451, 0, 140, -70, -318, 243, 67
55806, -871, 199, -450, -70, 140, -70, -321, 235, 70
55807, -870, 198, -450, -70, 140, -70, -318, 247, 69
55808, -871, 199, -450, 0, 140, -70, -318, 240, 63
55809, -870, 199, -450, -70, 210, -70, -321, 235, 76
55810, -871, 198, -451, 0, 210, -70, -315, 247, 73
55811, -871, 199, -450, 0, 140, -70, -319, 238, 70
55812, -870, 199, -450, 0, 210, -70, -322, 246, 70
55813, -871, 198, -450, 0, 140, -70, -322, 237, 64
55814, -870, 199, -450, 0, 140, -70, -319, 234, 72
55815, -871, 199, -449, 0, 140, -140, -322, 244, 72
55816, -872, 199, -451, 0, 140, -70, -325, 249, 73
55817, -871, 199, -450, 0, 210, -70, -322, 240, 70
55818, -870, 199, -450, -70, 140, -70, -319, 246, 58
55819, -871, 198, -450, -70, 140, -70, -315, 241, 63
55820, -871, 198, -451, 0, 210, -70, -324, 243, 72
55821, -871, 199, -450, 0, 140, -70, -324, 241, 61
55822, -870, 198, -450, 70, 140, -70, -325, 241, 72
55823, -871, 198, -450, 70, 140, -70, -319, 234, 73
55824, -871, 199, -450, -70, 140, -70, -322, 241, 73
55825, -871, 198, -451, 0, 140, -140, -319, 237, 70
55826, -870, 199, -450, 70, 140, -70, -324, 244, 75
55827, -871, 199, -450, 0, 140, -70, -316, 235, 69
55828, -870, 198, -450, 70, 210, -70, -325, 243, 70
55829, -871, 199, -450, 0, 210, -70, -322, 241, 73
55830, -871, 198, -450, 0, 140, -70, -318, 246, 72
55831, -871, 199, -451, 0, 140, -70, -316, 240, 79
55832, -871, 198, -449, 0, 210, -70, -318, 243, 70
55833, -871, 199, -449, -140, 140, -70, -330, 247, 70
55834, -871, 198, -451, 0, 140, -140, -322, 247, 79
55835, -871, 198, -450, 0, 140, -70, -328, 243, 67
55836, -871, 198, -450, 0, 140, -70, -318, 241, 69
55837, -871, 199, -450, 0, 210, -70, -322, 237, 73
55838, -872, 199, -450, 0, 210, -140, -322, 241, 73
55839, -871, 199, -451, -70, 210, -70, -313, 241, 73
55840, -870, 199, -450, 0, 140, -140, -324, 246, 72
55841, -870, 198, -450, 0, 140, -70, -316, 240, 78
55842, -870, 198, -450, 0, 140, -70, -316, 235, 73
55843, -871, 198, -451, 0, 210, -70, -321, 240, 70
55844, -872, 198, -450, -70, 140, -70, -315, 238, 73
55845, -870, 198, -450, 0, 210, -70, -321, 250, 69
55846, -871, 198, -451, 0, 140, -70, -319, 234, 75
55847, -871, 199, -450, -70, 210, -70, -312, 243, 73
55848, -870, 198, -451, 70, 140, -140, -313, 240, 70
55849, -871, 199, -451, 0, 140, -140, -321, 241, 73
55850, -872, 199, -451, 70, 140, -70, -310, 235, 66
55851, -871, 199, -451, 0, 140, -70, -324, 249, 78
55852, -871, 199, -451, 0, 140, -70, -315, 238, 61
55853, -870, 199, -450, -70, 140, -70, -325, 241, 73
55854, -871, 199, -451, 0, 140, -70, -313, 241, 69
55855, -870, 198, -450, 0, 210, -70, -321, 240, 78
55856, -870, 199, -450, 0, 140, -70, -327, 240, 70
55857, -870, 199, -451, 70, 140, -70, -322, 246, 78
55858, -871, 199, -450, 0, 210, -70, -319, 240, 66
55859, -870, 198, -451, 0, 140, -70, -327, 250, 76
55860, -872, 198, -449, -70, 140, -70, -325, 252, 72
55861, -871, 199, -452, 0, 210, -70, -330, 246, 63
55862, -870, 199, -450, -70, 210, -70, -313, 243, 63
55863, -870, 198, -449, 0, 140, -70, -318, 244, 73
55864, -871, 199, -451, 0, 140, 0, -321, 238, 69
55865, -871, 199, -450, 0, 210, -70, -316, 240, 67
55866, -871, 199, -451, 0, 210, -70, -315, 246, 73
55867, -871, 199, -449, -70, 140, -70, -322, 237, 75
55868, -871, 199, -449, 0, 140, -70, -328, 235, 66
55869, -870, 198, -450, 0, 140, -70, -321, 244, 75
55870, -870, 198, -451, 0, 140, -140, -328, 240, 78
55871, -870, 199, -451, -70, 140, -70, -324, 241, 76
55872, -871, 199, -450, 0, 210, -140, -328, 237, 70
55873, -871, 198, -450, 0, 70, -140, -324, 243, 76
55874, -871, 198, -450, 0, 210, -70, -307, 243, 69
55875, -871, 200, -451, 0, 140, -70, -328, 246, 70
55876, -870, 199, -450, 0, 70, -70, -319, 229, 70
55877, -870, 198, -450, 0, 140, -70, -318, 235, 73
55878, -871, 198, -450, -70, 210, -70, -321, 241, 73
55879, -871, 198, -451, 0, 140, -140, -325, 235, 69
55880, -870, 199, -450, 0, 140, -70, -319, 241, 75
55881, -869, 199, -449, -70, 140, -70, -321, 237, 73
55882, -870, 198, -449, 0, 140, -70, -325, 234, 73
55883, -870, 198, -450, 0, 210, -70, -321, 238, 67
55884, -871, 199, -450, 0, 140, -70, -321, 240, 63
55885, -871, 199, -450, 0, 140, -70, -322, 243, 76
55886, -871, 199, -450, 0, 210, -70, -324, 240, 64
55887, -871, 198, -450, 0, 140, -70, -318, 244, 70
55888, -872, 199, -449, 0, 210, -70, -324, 237, 64
55889, -870, 198, -450, 0, 140, -70, -318, 243, 75
55890, -871, 199, -450, 70, 210, -70, -321, 237, 66
55891, -871, 198, -450, -70, 70, -70, -328, 240, 79
55892, -871, 198, -450, -70, 140, -70, -315, 229, 72
55893, -871, 199, -450, -70, 140, -70, -310, 243, 75
55894, -871, 199, -450, 0, 210, -70, -316, 237, 75
55895, -871, 199, -451, 70, 210, -70, -315, 240, 70
55896, -871, 199, -450, 0, 70, -70, -316, 247, 67
55897, -870, 199, -450, 0, 140, -70, -315, 243, 69
55898, -871, 199, -450, 0, 210, -70, -331, 228, 70
55899, -870, 198, -450, 70, 280, -140, -318, 243, 66
55900, -870, 199, -451, 0, 140, -70, -324, 238, 70
55901, -871, 198, -451, 0, 210, -140, -324, 237, 64
55902, -871, 199, -450, 0, 140, -70, -327, 241, 75
55903, -871, 198, -450, 0, 210, 0, -312, 241, 78
55904, -871, 199, -450, 0, 140, -70, -328, 243, 67
55905, -870, 199, -450, 0, 210, -70, -318, 238, 70
55906, -871, 199, -450, 0, 140, -70, -306, 250, 73
55907, -871, 199, -451, 0, 140, -70, -313, 243, 72
55908, -871, 199, -449, 0, 140, -70, -328, 240, 70
55909, -870, 198, -450, -70, 140, -70, -325, 234, 73
55910, -870, 198, -451, 70, 140, -70, -322, 234, 78
55911, -871, 198, -450, 0, 140, -70, -322, 237, 82
55912, -871, 198, -450, 0, 140, -70, -321, 249, 69
55913, -870, 198, -450, 0, 140, -70, -316, 244, 75
55914, -871, 198, -451, 70, 140, -70, -316, 235, 81
55915, -870, 199, -450, 0, 140, -70, -316, 235, 69
55916, -870, 199, -450, 0, 140, -70, -324, 241, 76
55917, -871, 198, -450, 0, 140, -70, -324, 229, 72
55918, -871, 199, -450, -70, 140, -70, -315, 241, 70
55919, -871, 199, -450, 0, 140, -70, -327, 235, 63
55920, -871, 199, -450, 0, 140, -70, -322, 238, 73
55921, -871, 199, -450, 70, 140, -70, -321, 241, 76
55922, -870, 199, -451, 0, 210, -70, -319, 235, 75
55923, -870, 199, -449, -70, 140, -70, -316, 243, 73
55924, -870, 199, -449, 0, 140, -70, -322, 243, 70
55925, -871, 199, -450, 0, 140, -70, -327, 243, 69
55926, -870, 198, -450, -70, 210, -70, -321, 247, 85
55927, -871, 199, -450, 0, 140, -70, -318, 240, 78
55928, -870, 198, -449, 70, 210, -140, -325, 237, 76
55929, -870, 198, -451, 0, 140, -70, -324, 241, 79
55930, -871, 199, -451, 0, 70, -70, -322, 231, 82
55931, -871, 199, -451, 0, 140, -70, -316, 237, 72
55932, -871, 200, -451, -70, 210, -70, -322, 250, 75
55933, -871, 199, -451, 0, 140, -70, -324, 240, 72
55934, -871, 198, -451, 0, 70, -70, -319, 249, 79
55935, -870, 199, -450, 70, 210, -70, -321, 240, 69
55936, -871, 199, -450, 0, 140, -70, -327, 237, 79
55937, -872, 198, -450, 0, 140, -70, -324, 240, 75
55938, -871, 198, -450, 0, 210, -70, -309, 244, 73
55939, -870, 198, -450, 0, 140, -70, -318, 237, 78
55940, -871, 199, -450, 0, 140, -70, -319, 237, 72
55941, -870, 199, -450, 0, 210, -70, -312, 234, 75
55942, -871, 198, -451, 0, 140, -70, -333, 246, 73
55943, -871, 199, -450, 0, 210, -70, -315, 241, 73
55944, -870, 199, -450, 0, 210, -140, -322, 238, 75
55945, -871, 199, -450, 70, 140, -70, -322, 238, 70
55946, -871, 199, -451, 0, 140, -70, -324, 240, 69
55947, -871, 198, -450, 0, 210, -70, -319, 247, 79
55948, -871, 199, -450, 70, 140, -70, -315, 246, 67
55949, -870, 199, -451, 70, 210, -70, -327, 244, 79
55950, -871, 198, -450, 0, 70, -140, -327, 234, 73
55951, -871, 198, -449, 0, 140, -70, -315, 244, 76
55952, -870, 199, -450, 0, 140, -70, -312, 232, 76
55953, -871, 199, -450, -70, 210, -70, -325, 247, 79
55954, -871, 199, -450, 0, 210, -70, -324, 253, 76
55955, -871, 198, -451, 70, 140, -70, -324, 241, 76
55956, -870, 199, -450, 0, 140, -140, -327, 235, 64
55957, -870, 199, -450, 70, 140, -70, -321, 241, 79
55958, -870, 199, -450, 0, 210, -70, -313, 235, 75
55959, -870, 198, -450, 0, 210, -70, -316, 247, 73
55960, -871, 199, -450, 0, 140, -70, -318, 235, 76
55961, -871, 198, -450, 0, 210, -70, -315, 240, 73
55962, -871, 199, -450, 0, 210, -140, -318, 240, 76
55963, -870, 199, -451, 0, 140, -140, -322, 240, 78
55964, -871, 199, -451, 0, 140, -70, -316, 246, 75
55965, -871, 199, -449, 0, 210, -70, -327, 237, 75
55966, -871, 199, -450, 0, 140, -70, -321, 244, 72
55967, -871, 199, -451, 0, 140, -70, -318, 243, 78
55968, -870, 199, -450, 0, 140, -70, -331, 232, 75
55969, -871, 199, -450, -70, 140, -70, -319, 243, 78
55970, -870, 198, -450, -70, 140, -70, -310, 240, 70
55971, -870, 198, -450, -70, 140, -70, -319, 240, 72
55972, -872, 198, -451, 0, 140, -140, -330, 238, 73
55973, -871, 199, -451, 70, 210, -70, -313, 246, 66
55974, -871, 199, -450, 70, 210, -70, -324, 240, 70
55975, -871, 199, -450, 0, 210, -70, -312, 240, 73
55976, -871, 198, -450, 0, 140, -70, -328, 238, 69
55977, -871, 198, -451, 0, 140, -70, -324, 240, 72
55978, -871, 199, -450, 0, 140, -70, -316, 244, 67
55979, -871, 199, -451, 0, 140, -70, -327, 243, 76
55980, -871, 199, -451, 0, 140, -140, -322, 250, 70
55981, -871, 199, -451, 0, 210, -70, -322, 243, 69
55982, -870, 198, -449, 0, 140, -70, -322, 244, 70
55983, -870, 199, -450, -70, 210, -70, -318, 228, 81
55984, -872, 199, -454, -70, 140, -70, -313, 235, 75
55985, -874, 198, -452, 0, 210, -140, -319, 237, 72
55986, -871, 198, -450, 0, 140, -70, -319, 243, 75
55987, -869, 199, -449, 0, 140, -70, -322, 238, 81
55988, -871, 199, -450, 0, 140, -70, -319, 240, 72
55989, -871, 198, -452, 0, 210, -70, -313, 244, 75
55990, -871, 198, -452, 70, 210, -70, -319, 241, 75
55991, -870, 200, -450, -70, 70, -70, -310, 238, 69
55992, -868, 199, -449, 0, 140, -70, -324, 237, 69
55993, -871, 198, -450, 0, 140, -70, -321, 237, 63
55994, -873, 197, -450, 0, 140, -70, -318, 234, 63
55995, -870, 197, -451, 0, 210, -70, -316, 249, 72
55996, -871, 200, -450, -70, 140, -70, -325, 238, 70
55997, -870, 199, -451, 0, 70, -70, -319, 247, 69
55998, -871, 199, -450, -70, 140, -70, -315, 237, 73
55999, -871, 198, -450, 0, 140, -70, -330, 244, 69
56000, -870, 198, -450, 0, 140, -70, -321, 234, 69
56001, -870, 199, -449, -70, 210, -70, -328, 240, 75
56002, -872, 199, -450, 0, 210, -70, -322, 241, 69
56003, -872, 199, -451, 0, 140, -70, -325, 237, 60
56004, -871, 199, -450, 0, 70, -70, -334, 237, 73
56005, -870, 199, -449, 0, 210, -70, -315, 238, 73
56006, -870, 199, -450, 0, 210, -70, -321, 238, 72
56007, -870, 199, -451, 0, 210, -70, -327, 241, 66
56008, -871, 199, -450, 0, 210, -70, -322, 238, 69
56009, -871, 199, -450, 70, 140, -70, -313, 246, 76
56010, -871, 198, -450, 0, 140, -70, -319, 244, 79
56011, -870, 198, -450, 0, 140, -70, -324, 238, 75
56012, -870, 199, -450, 0, 140, -70, -334, 234, 73
56013, -870, 198, -449, 0, 140, -70, -315, 234, 57
56014, -870, 198, -450, 70, 210, -70, -316, 234, 63
56015, -871, 198, -449, 0, 210, -70, -315, 237, 73
56016, -871, 199, -450, 0, 70, -70, -322, 240, 66
56017, -870, 199, -450, 0, 140, -70, -312, 241, 66
56018, -870, 198, -451, -70, 210, -70, -319, 243, 70
56019, -871, 198, -451, 70, 210, -70, -319, 241, 75
56020, -871, 198, -451, 0, 210, -70, -319, 243, 70
56021, -871, 199, -450, 70, 140, -70, -316, 243, 75
56022, -870, 198, -450, 0, 140, -70, -322, 250, 69
56023, -870, 198, -450, 0, 140, -140, -322, 246, 64
56024, -871, 199, -451, 0, 140, -70, -318, 235, 72
56025, -871, 199, -450, 0, 210, -70, -322, 246, 67
56026, -870, 200, -450, 0, 210, -70, -316, 243, 72
56027, -871, 199, -452, 70, 140, -70, -321, 235, 79
56028, -871, 199, -451, 0, 210, -70, -336, 244, 66
56029, -871, 199, -449, 0, 210, -70, -312, 252, 73
56030, -871, 199, -450, 70, 210, -70, -321, 240, 73
56031, -871, 198, -450, 0, 140, -70, -325, 244, 75
56032, -870, 199, -449, 70, 140, -70, -318, 235, 67
56033, -871, 199, -450, 70, 140, -70, -319, 246, 69
56034, -871, 198, -450, 70, 140, -70, -319, 244, 66
56035, -871, 199, -450, 0, 210, -70, -322, 237, 73
56036, -871, 198, -450, 0, 140, -70, -321, 243, 73
56037, -870, 199, -450, 0, 140, -70, -318, 246, 67
56038, -871, 199, -450, 0, 140, -70, -328, 243, 72
56039, -870, 198, -451, 0, 140, -70, -328, 234, 70
56040, -871, 198, -451, 0, 140, -70, -319, 249, 79
56041, -871, 198, -451, 0, 210, -70, -322, 237, 73
56042, -871, 199, -450, 0, 140, -70, -328, 244, 70
56043, -871, 199, -451, 0, 210, -70, -322, 243, 73
56044, -871, 198, -451, -70, 140, -70, -321, 240, 75
56045, -870, 199, -451, 0, 140, -70, -319, 241, 75
56046, -872, 198, -451, 0, 210, -140, -327, 237, 75
56047, -871, 199, -450, -70, 140, -70, -315, 240, 73
56048, -870, 199, -451, 0, 140, -70, -319, 235, 67
56049, -871, 198, -451, 0, 140, -70, -336, 241, 78
56050, -871, 198, -451, 0, 140, -70, -330, 240, 67
56051, -871, 198, -450, 0, 140, -70, -321, 246, 81
56052, -871, 199, -450, 0, 140, -70, -324, 240, 79
56053, -870, 198, -450, 0, 140, -70, -319, 249, 67
56054, -871, 199, -452, 70, 140, -70, -325, 244, 69
56055, -871, 199, -450, 0, 210, -70, -319, 235, 73
56056, -870, 199, -449, 0, 210, -70, -321, 232, 69
56057, -869, 198, -449, 0, 210, -70, -318, 247, 72
56058, -870, 198, -450, 70, 280, -70, -327, 244, 78
56059, -873, 199, -452, 0, 140, -70, -325, 250, 70
56060, -874, 198, -450, 0, 70, -70, -327, 237, 79
56061, -867, 199, -449, 0, 140, -70, -318, 241, 76
56062, -871, 199, -451, 0, 140, -70, -315, 240, 72
56063, -872, 198, -452, 70, 140, -70, -328, 237, 85
56064, -871, 197, -451, 0, 140, -70, -319, 238, 70
56065, -870, 198, -451, -70, 140, -70, -318, 244, 81
56066, -869, 200, -449, 70, 140, -70, -316, 232, 73
56067, -871, 198, -450, 0, 140, -70, -318, 235, 69
56068, -871, 197, -451, 70, 140, -70, -327, 238, 69
56069, -871, 198, -450, 70, 70, -70, -318, 237, 72
56070, -870, 199, -450, 0, 210, -70, -322, 241, 69
56071, -871, 198, -450, 0, 140, -70, -322, 244, 70
56072, -871, 198, -451, 0, 140, -70, -313, 235, 67
56073, -871, 198, -450, -70, 210, -70, -319, 238, 73
56074, -870, 199, -450, 0, 210, -70, -319, 240, 70
56075, -870, 199, -451, 0, 210, -70, -321, 249, 81
56076, -872, 199, -450, 70, 210, -70, -327, 231, 81
56077, -871, 199, -450, 0, 140, -140, -322, 240, 72
56078, -871, 198, -449, 0, 140, -70, -321, 241, 72
56079, -870, 198, -449, 0, 140, -70, -322, 243, 72
56080, -870, 199, -451, 0, 210, -70, -333, 249, 76
56081, -872, 199, -450, 0, 140, -70, -313, 240, 67
56082, -871, 198, -450, 0, 210, -140, -325, 235, 67
56083, -871, 199, -450, -70, 140, -70, -316, 234, 69
56084, -871, 198, -450, 0, 210, -70, -322, 246, 76
56085, -871, 199, -450, 0, 140, -70, -325, 241, 70
56086, -870, 198, -450, 0, 140, -70, -315, 250, 67
56087, -871, 198, -451, 0, 140, -70, -321, 243, 78
56088, -870, 199, -450, 0, 140, -70, -321, 246, 66
56089, -871, 199, -449, 70, 140, -70, -322, 237, 79
56090, -871, 198, -450, -70, 140, -70, -315, 252, 75
56091, -871, 199, -450, 0, 210, -70, -331, 240, 79
56092, -870, 199, -450, 0, 210, -70, -316, 246, 69
56093, -870, 198, -451, -70, 210, -70, -322, 243, 78
56094, -870, 198, -449, 0, 140, -70, -318, 240, 75
56095, -870, 199, -450, -70, 210, -70, -322, 237, 76
56096, -871, 199, -450, 0, 140, -140, -319, 249, 72
56097, -871, 198, -449, -70, 210, -140, -319, 243, 64
56098, -870, 199, -450, 70, 140, -70, -325, 238, 76
56099, -870, 199, -450, 0, 140, -70, -325, 246, 73
56100, -871, 199, -450, 0, 210, -70, -319, 232, 76
56101, -870, 198, -452, 0, 140, -70, -318, 235, 72
56102, -871, 198, -450, 0, 140, -70, -315, 241, 75
56103, -871, 198, -450, 0, 140, -70, -324, 244, 78
56104, -871, 199, -450, 0, 210, -70, -325, 238, 69
56105, -871, 198, -450, 0, 140, -70, -321, 241, 66
56106, -871, 198, -450, 70, 140, -70, -316, 238, 72
56107, -871, 198, -450, 0, 210, -140, -318, 240, 69
56108, -870, 198, -450, 0, 140, -70, -324, 237, 78
56109, -869, 198, -450, 0, 140, -140, -328, 249, 67
56110, -870, 199, -451, 0, 210, -70, -327, 241, 72
56111, -871, 198, -451, 0, 140, -70, -310, 243, 73
56112, -870, 198, -450, 0, 140, -70, -321, 240, 75
56113, -871, 199, -449, -70, 140, -70, -318, 240, 73
56114, -870, 198, -449, -70, 210, -70, -322, 238, 76
56115, -871, 199, -450, -70, 210, -70, -318, 237, 64
56116, -870, 199, -450, 0, 140, -70, -331, 250, 79
56117, -871, 199, -451, -70, 140, -70, -318, 238, 75
56118, -870, 199, -450, 0, 140, -70, -328, 243, 69
56119, -871, 199, -450, -70, 140, -70, -321, 246, 69
56120, -869, 199, -450, 0, 140, -70, -325, 240, 64
56121, -870, 199, -449, 0, 140, -70, -319, 250, 73
56122, -871, 198, -450, 0, 140, -70, -325, 238, 69
56123, -871, 199, -451, 0, 210, -70, -318, 249, 75
56124, -871, 199, -452, 0, 210, -70, -325, 240, 81
56125, -870, 199, -450, 0, 140, -70, -322, 243, 73
56126, -871, 198, -450, 0, 140, -70, -325, 244, 69
56127, -870, 198, -449, 0, 140, -140, -318, 234, 76
56128, -871, 199, -449, 0, 210, -70, -319, 246, 73
56129, -873, 199, -453, 0, 210, -70, -327, 237, 73
56130, -873, 199, -451, 0, 140, -70, -324, 235, 75
56131, -868, 199, -448, 0, 140, -70, -319, 244, 70
56132, -870, 199, -450, 0, 210, -70, -318, 247, 85
56133, -872, 198, -451, 0, 210, -140, -319, 235, 76
56134, -872, 198, -450, 0, 210, -70, -319, 243, 72
56135, -870, 198, -449, 0, 210, -70, -319, 243, 73
56136, -870, 199, -451, -70, 140, -70, -313, 241, 76
56137, -871, 198, -450, -70, 140, -70, -315, 243, 66
56138, -870, 197, -450, -70, 210, -70, -331, 244, 70
56139, -870, 199, -450, 0, 140, -70, -322, 237, 69
56140, -870, 199, -449, 0, 140, -70, -324, 243, 61
56141, -871, 198, -450, 0, 140, -140, -322, 238, 70
56142, -871, 197, -451, -70, 140, -70, -322, 246, 76
56143, -870, 199, -450, 0, 140, -70, -319, 243, 67
56144, -870, 198, -450, 70, 210, -70, -312, 235, 69
56145, -871, 199, -451, 70, 140, -70, -321, 238, 72
56146, -870, 198, -451, 0, 140, -70, -324, 240, 79
56147, -870, 199, -449, 0, 140, -70, -327, 243, 75
56148, -871, 198, -450, 70, 210, -70, -319, 240, 78
56149, -871, 199, -449, 70, 210, -70, -319, 234, 76
56150, -871, 199, -451, -70, 140, -70, -327, 234, 85
56151, -871, 199, -450, 0, 140, -70, -318, 237, 76
56152, -870, 199, -451, 0, 210, -70, -325, 244, 78
56153, -870, 199, -450, 0, 140, -70, -318, 241, 70
56154, -871, 199, -450, 0, 140, -140, -321, 241, 70
56155, -871, 199, -451, 0, 210, -140, -316, 232, 67
56156, -871, 199, -450, 0, 140, -70, -321, 240, 76
56157, -871, 199, -450, 0, 140, -70, -318, 243, 76
56158, -871, 199, -449, 0, 140, -70, -318, 234, 76
56159, -870, 199, -450, 0, 140, -70, -321, 240, 70
56160, -870, 199, -450, 0, 140, -70, -324, 243, 81
56161, -871, 199, -450, 0, 210, -70, -330, 234, 69
56162, -871, 199, -450, -70, 140, -70, -316, 249, 73
56163, -871, 198, -450, -70, 210, -70, -316, 237, 73
56164, -871, 199, -450, 0, 140, -70, -331, 238, 78
56165, -871, 199, -450, 0, 140, -70, -316, 238, 67
56166, -871, 198, -451, 0, 140, -70, -327, 250, 70
56167, -870, 199, -450, 0, 140, -70, -325, 240, 69
56168, -870, 199, -450, 0, 210, -140, -327, 232, 66
56169, -871, 198, -450, 0, 140, -70, -319, 241, 81
56170, -871, 198, -450, -70, 210, -70, -322, 250, 72
56171, -871, 199, -451, 0, 140, -70, -324, 247, 70
56172, -871, 199, -449, 0, 210, 0, -325, 237, 76
56173, -870, 199, -451, -70, 140, -70, -321, 247, 73
56174, -871, 198, -450, 0, 210, -70, -324, 234, 75
56175, -870, 198, -449, 70, 140, -70, -319, 241, 69
56176, -870, 199, -450, 0, 210, -70, -319, 232, 60
56177, -870, 199, -450, 0, 140, -70, -325, 244, 70
56178, -871, 199, -450, -70, 140, -70, -316, 247, 73
56179, -871, 199, -450, 70, 140, -70, -319, 247, 70
56180, -870, 199, -451, 0, 140, -70, -322, 235, 72
56181, -871, 199, -451, 0, 210, -140, -319, 243, 76
56182, -871, 198, -450, 0, 210, -70, -316, 232, 67
56183, -871, 199, -450, -70, 140, -140, -327, 243, 70
56184, -871, 198, -450, 0, 210, -70, -327, 241, 78
56185, -871, 199, -450, 70, 140, -70, -324, 238, 72
56186, -871, 200, -449, 0, 210, -70, -322, 249, 76
56187, -871, 198, -449, 0, 140, -70, -321, 238, 69
56188, -870, 199, -450, 0, 140, -70, -324, 243, 70
56189, -871, 199, -450, 0, 140, -70, -325, 247, 72
56190, -870, 199, -450, -70, 210, -70, -328, 243, 75
56191, -870, 199, -450, 0, 210, -70, -321, 246, 69
56192, -871, 199, -450, 0, 140, -70, -321, 238, 64
56193, -871, 199, -450, 0, 140, -70, -319, 246, 69
56194, -871, 199, -450, 0, 210, -70, -322, 237, 70
56195, -870, 199, -450, 0, 210, -70, -316, 235, 76
56196, -870, 199, -450, 0, 210, -70, -319, 246, 69
56197, -871, 198, -451, -70, 140, -70, -319, 249, 61
56198, -871, 198, -450, 0, 140, -70, -321, 231, 70
56199, -871, 198, -451, -70, 140, 0, -328, 235, 73
56200, -871, 198, -450, 70, 140, -70, -324, 241, 70
56201, -871, 199, -450, 0, 140, -70, -318, 246, 79
56202, -870, 199, -450, 0, 140, -70, -322, 238, 66
56203, -872, 198, -451, 0, 140, -70, -321, 244, 75
56204, -871, 198, -450, -70, 210, -70, -319, 240, 70
56205, -870, 199, -450, 0, 140, -70, -322, 241, 73
56206, -870, 198, -450, 0, 140, -70, -328, 243, 70
56207, -870, 199, -450, -70, 140, -70, -319, 237, 72
56208, -870, 199, -451, 0, 140, -70, -321, 237, 73
56209, -871, 199, -450, -70, 140, -70, -316, 243, 72
56210, -871, 199, -450, 0, 210, -70, -322, 238, 66
56211, -871, 199, -450, 0, 140, -70, -313, 237, 67
56212, -871, 198, -451, 0, 140, -140, -315, 237, 73
56213, -871, 199, -450, 0, 210, -70, -325, 241, 70
56214, -871, 199, -449, 0, 140, -140, -322, 235, 67
56215, -872, 198, -450, 0, 140, -140, -325, 246, 78
56216, -871, 199, -450, -70, 210, -70, -324, 240, 76
56217, -871, 199, -450, 70, 140, -70, -319, 240, 73
56218, -871, 198, -450, 0, 140, -70, -318, 238, 67
56219, -871, 198, -451, 70, 210, -140, -325, 244, 79
56220, -870, 199, -450, 0, 140, -70, -321, 240, 79
56221, -870, 199, -450, 0, 140, -70, -315, 244, 69
56222, -870, 199, -450, 0, 140, -140, -327, 252, 81
56223, -871, 198, -450, 0, 140, -70, -318, 235, 70
56224, -871, 198, -450, 0, 210, -70, -328, 241, 73
56225, -871, 198, -450, 0, 140, -70, -321, 238, 82
56226, -871, 198, -449, 0, 210, -70, -330, 237, 69
56227, -870, 198, -450, 0, 140, -70, -310, 232, 64
56228, -870, 199, -450, 0, 210, -140, -330, 246, 72
56229, -871, 198, -450, 0, 140, -70, -319, 241, 76
56230, -870, 199, -452, 0, 210, -70, -322, 243, 72
56231, -871, 198, -451, -70, 210, -70, -318, 234, 69
56232, -871, 198, -450, 70, 210, -70, -316, 246, 69
56233, -869, 198, -451, 0, 140, -70, -321, 243, 75
56234, -870, 199, -449, 0, 210, -70, -319, 235, 81
56235, -871, 199, -450, 0, 140, -70, -318, 234, 75
56236, -871, 199, -450, 0, 140, -70, -312, 244, 72
56237, -870, 198, -450, 0, 140, -70, -321, 240, 58
56238, -870, 199, -450, 0, 140, -70, -321, 246, 72
56239, -870, 199, -451, 0, 140, -70, -313, 232, 79
56240, -871, 198, -451, 0, 140, -70, -324, 238, 78
56241, -871, 198, -450, 0, 140, -70, -318, 235, 81
56242, -871, 199, -450, 70, 210, -70, -318, 244, 67
56243, -871, 198, -451, 0, 210, -70, -322, 244, 78
56244, -870, 199, -450, 0, 140, -70, -316, 240, 81
56245, -871, 198, -449, 0, 210, -70, -324, 243, 75
56246, -871, 199, -450, 0, 210, -70, -316, 244, 72
56247, -870, 199, -450, 0, 140, -70, -315, 228, 69
56248, -870, 198, -450, 0, 140, -70, -322, 243, 78
56249, -871, 198, -450, 0, 210, -140, -316, 235, 75
56250, -871, 198, -451, -70, 140, -70, -322, 241, 73
56251, -870, 199, -450, -70, 140, -70, -315, 234, 76
56252, -870, 199, -449, 70, 140, -70, -322, 241, 82
56253, -871, 198, -449, -70, 210, -70, -322, 232, 70
56254, -871, 199, -451, 0, 210, -70, -322, 237, 73
56255, -871, 199, -450, 70, 140, -70, -312, 241, 72
56256, -866, 196, -448, 140, 490, -140, -316, 237, 72
56257, -859, 186, -441, 280, 1050, -140, -319, 240, 69
56258, -860, 186, -443, 560, 1750, -140, -325, 238, 79
56259, -843, 181, -437, 980, 2940, -70, -322, 243, 75
56260, -833, 169, -418, 1680, 5740, -70, -328, 243, 82
56261, -914, 212, -477, 1680, 5390, 70, -319, 241, 76
56262, -913, 242, -503, 770, 1680, 70, -316, 234, 75
56263, -898, 258, -493, -280, -840, 70, -322, 241, 72
56264, -883, 243, -462, -1190, -3010, -70, -321, 238, 69
56265, -882, 212, -452, -1680, -4970, -140, -318, 235, 81
56266, -949, 197, -502, -2310, -8330, 70, -325, 246, 75
56267, -899, 175, -456, -2800, -8260, 630, -319, 234, 75
56268, -937, 216, -455, -2940, -11200, 490, -328, 246, 79
56269, -965, 220, -458, -3780, -15470, 1330, -324, 238, 76
56270, -1034, 200, -472, -5880, -27300, 3710, -318, 240, 75
56271, -1117, 119, -475, -6790, -37100, 5250, -316, 237, 70
56272, -1106, 102, -493, -7560, -42700, 7070, -310, 247, 63
56273, -1132, 145, -524, -8540, -48090, 8820, -321, 247, 63
56274, -1103, 204, -523, -9730, -54460, 10220, -315, 241, 49
56275, -999, 263, -480, -12320, -64050, 12460, -319, 246, 63
56276, -975, 274, -473, -13720, -65730, 13580, -327, 243, 45
56277, -983, 280, -470, -15120, -66850, 14910, -318, 252, 52
56278, -1005, 263, -456, -16520, -68110, 16380, -316, 249, 43
56279, -1019, 236, -443, -17500, -69020, 18130, -322, 255, 33
56280, -1045, 187, -441, -18690, -66920, 22610, -324, 238, 30
56281, -1036, 171, -437, -18690, -62020, 25690, -330, 255, 34
56282, -1086, 167, -433, -18690, -57050, 29120, -315, 246, 25
56283, -990, 152, -405, -18550, -49700, 32550, -315, 259, 18
56284, -987, 167, -371, -18200, -31500, 39480, -315, 253, 18
56285, -948, 219, -363, -18340, -22470, 42700, -325, 259, 15
56286, -955, 234, -347, -18620, -15820, 45570, -318, 262, 15
56287, -991, 239, -339, -18970, -11550, 47950, -327, 264, 19
56288, -1016, 240, -332, -19530, -8890, 50120, -327, 265, 10
56289, -1049, 241, -343, -20440, -8820, 53760, -325, 273, 15
56290, -1054, 243, -344, -20930, -10150, 55510, -333, 280, 15
56291, -1061, 253, -352, -21420, -11760, 57120, -337, 268, 12
56292, -1056, 264, -351, -22050, -13300, 58730, -339, 280, 6
56293, -1049, 282, -359, -22750, -15120, 60200, -339, 273, 16
56294, -1044, 325, -353, -24360, -19320, 63210, -342, 282, 12
56295, -1050, 348, -346, -25340, -22260, 64540, -345, 292, 10
56296, -1054, 370, -340, -26250, -26180, 65590, -345, 291, -1
56297, -1056, 386, -334, -27300, -31220, 66570, -346, 300, 13
56298, -1034, 411, -315, -29120, -41510, 67900, -346, 292, 3
56299, -1050, 440, -320, -29820, -46060, 68250, -357, 300, -4
56300, -1059, 462, -321, -30520, -50750, 68460, -358, 303, -1
56301, -1030, 474, -313, -30870, -53270, 68390, -363, 312, -10
56302, -1005, 476, -310, -31220, -54040, 68530, -361, 321, -12
56303, -921, 447, -277, -31290, -48370, 69160, -372, 321, -16
56304, -926, 431, -260, -31290, -45500, 69370, -367, 319, -18
56305, -913, 417, -240, -31290, -45360, 69370, -370, 322, -27
56306, -888, 404, -215, -30940, -45150, 69510, -382, 327, -21
56307, -894, 397, -195, -30450, -44800, 69580, -387, 322, -34
56308, -844, 392, -135, -28910, -43540, 69090, -385, 327, -30
56309, -858, 403, -110, -27720, -41650, 68600, -390, 337, -30
56310, -858, 412, -69, -25970, -40250, 68180, -387, 330, -24
56311, -859, 458, -42, -23380, -40460, 67900, -394, 333, -37
56312, -913, 473, -103, -18620, -48300, 67410, -405, 336, -46
56313, -897, 366, -96, -17570, -51170, 66640, -396, 348, -36
56314, -863, 367, -98, -17430, -51030, 65940, -400, 348, -42
56315, -820, 506, -108, -18340, -47950, 65170, -411, 337, -36
56316, -825, 654, -134, -19810, -49140, 64890, -411, 345, -42
56317, -778, 583, -48, -21420, -55020, 66080, -415, 357, -51
56318, -801, 553, -36, -21210, -56910, 66850, -423, 352, -51
56319, -876, 563, -69, -20440, -57330, 67270, -426, 361, -55
56320, -921, 538, -83, -19600, -58520, 67200, -433, 360, -60
56321, -925, 484, -72, -18760, -59500, 66990, -430, 358, -60
56322, -745, 513, -40, -17220, -57120, 66920, -444, 360, -58
56323, -667, 571, -30, -16520, -52780, 67620, -435, 361, -64
56324, -650, 605, -25, -16100, -49070, 68320, -442, 364, -61
56325, -665, 622, -18, -15750, -46900, 68810, -448, 370, -55
56326, -707, 633, -13, -15260, -42700, 69090, -450, 369, -70
56327, -721, 629, -13, -14840, -40810, 68880, -451, 372, -63
56328, -681, 611, 0, -14140, -38360, 68810, -463, 372, -67
56329, -626, 597, 12, -13160, -33390, 68950, -468, 375, -64
56330, -586, 599, 20, -12040, -26740, 69090, -463, 375, -75
56331, -572, 652, 23, -10780, -15540, 69230, -465, 378, -67
56332, -613, 677, 16, -10710, -14420, 68810, -481, 381, -82
56333, -662, 690, 15, -11060, -16310, 68110, -475, 376, -64
56334, -682, 709, 15, -11480, -21560, 67060, -481, 375, -73
56335, -652, 703, 26, -11480, -22610, 66710, -483, 378, -69
56336, -545, 670, 59, -9730, -11970, 67410, -490, 384, -67
56337, -519, 683, 59, -8820, -3430, 67620, -496, 387, -72
56338, -528, 711, 54, -8400, 2240, 67410, -489, 385, -66
56339, -548, 730, 50, -8400, 4410, 66990, -501, 396, -69
56340, -621, 747, 49, -9730, -1330, 65660, -504, 396, -79
56341, -678, 767, 47, -10640, -7980, 64750, -501, 387, -79
56342, -683, 768, 45, -11130, -14980, 64330, -514, 399, -75
56343, -644, 745, 60, -11270, -17010, 64120, -516, 394, -69
56344, -585, 731, 76, -10850, -17010, 63560, -520, 393, -75
56345, -514, 766, 72, -10220, -14980, 62720, -529, 388, -66
56346, -484, 772, 86, -10080, -15120, 62300, -520, 396, -81
56347, -493, 779, 83, -10290, -16520, 61810, -531, 394, -66
56348, -492, 794, 76, -10500, -18060, 61320, -528, 391, -78
56349, -449, 792, 81, -10360, -10640, 60830, -531, 399, -88
56350, -351, 774, 106, -9100, -3850, 60410, -546, 390, -79
56351, -325, 783, 108, -8120, 3570, 59640, -544, 388, -75
56352, -293, 791, 120, -7420, 8610, 58800, -543, 393, -76
56353, -327, 812, 106, -7280, 10850, 57680, -540, 396, -70
56354, -476, 852, 84, -8330, 5460, 54950, -549, 394, -82
56355, -560, 870, 78, -9380, -3710, 53060, -561, 390, -84
56356, -575, 877, 66, -10500, -16590, 51100, -552, 397, -81
56357, -466, 839, 101, -10780, -23730, 49700, -562, 390, -93
56358, -431, 807, 107, -10220, -24920, 48650, -564, 399, -78
56359, -405, 848, 99, -9590, -28770, 46620, -565, 400, -79
56360, -371, 861, 103, -9380, -30170, 46060, -571, 400, -82
56361, -363, 862, 101, -9170, -29750, 45570, -574, 388, -73
56362, -268, 852, 127, -8610, -25410, 45430, -583, 396, -82
56363, -250, 861, 124, -7420, -10150, 45080, -573, 394, -87
56364, -250, 889, 119, -7140, -5110, 44520, -585, 393, -90
56365, -281, 887, 121, -6930, -3430, 43960, -580, 391, -87
56366, -302, 876, 132, -6790, -2520, 43330, -586, 393, -90
56367, -344, 874, 124, -6720, -2730, 42630, -579, 387, -91
56368, -373, 890, 114, -6300, -6440, 40600, -595, 393, -82
56369, -328, 888, 126, -6230, -7700, 39900, -594, 385, -84
56370, -299, 883, 129, -5950, -7000, 39550, -594, 394, -82
56371, -279, 890, 128, -5810, -4970, 39340, -594, 390, -84
56372, -287, 913, 122, -5740, -2380, 39270, -603, 400, -87
56373, -299, 930, 120, -5880, 70, 38500, -597, 387, -93
56374, -281, 917, 129, -6020, 1330, 37940, -595, 393, -93
56375, -279, 910, 127, -5880, 2660, 37520, -601, 384, -91
56376, -276, 905, 129, -5600, 3780, 37100, -613, 382, -91
56377, -283, 906, 128, -5180, 3780, 36470, -601, 390, -90
56378, -308, 911, 123, -5040, 3290, 36260, -618, 385, -91
56379, -322, 927, 121, -5110, 2380, 35910, -612, 384, -82
56380, -338, 947, 113, -5390, 700, 35700, -612, 384, -96
56381, -336, 950, 115, -5810, -1190, 35490, -627, 385, -88
56382, -317, 939, 116, -6440, -3850, 35350, -622, 387, -91
56383, -312, 940, 115, -6580, -4620, 35420, -627, 384, -84
56384, -299, 936, 118, -6650, -4970, 35490, -628, 381, -96
56385, -285, 931, 122, -6510, -5320, 35490, -625, 381, -85
56386, -256, 926, 129, -6300, -4410, 35560, -628, 379, -99
56387, -211, 928, 139, -5670, -770, 35770, -640, 393, -88
56388, -201, 932, 142, -5320, 2170, 35910, -633, 384, -100
56389, -198, 936, 147, -5040, 5320, 36120, -631, 379, -97
56390, -211, 944, 147, -4970, 7630, 36190, -631, 373, -105
56391, -226, 950, 148, -5110, 9100, 36260, -634, 384, -90
56392, -260, 952, 150, -5390, 7840, 36050, -634, 385, -106
56393, -268, 952, 151, -5670, 5670, 35770, -640, 382, -102
56394, -255, 949, 152, -5950, 3010, 35490, -646, 376, -97
56395, -233, 943, 158, -6090, 980, 35140, -646, 376, -94
56396, -195, 938, 163, -6160, -560, 34720, -642, 382, -106
56397, -186, 945, 164, -6160, -420, 34510, -642, 385, -97
56398, -183, 953, 163, -6300, -910, 34230, -645, 375, -105
56399, -181, 956, 161, -6440, -1610, 33950, -651, 376, -103
56400, -185, 954, 159, -6650, -2450, 33670, -655, 378, -105
56401, -193, 957, 155, -6860, -5320, 33110, -660, 373, -100
56402, -190, 957, 155, -6930, -6510, 32900, -658, 363, -97
56403, -186, 957, 153, -7000, -7770, 32620, -661, 384, -102
56404, -181, 960, 151, -7140, -8820, 32480, -645, 369, -103
56405, -175, 965, 147, -7280, -11340, 32060, -667, 376, -108
56406, -151, 967, 145, -7350, -12320, 31780, -658, 372, -112
56407, -133, 963, 147, -7350, -13230, 31360, -663, 379, -103
56408, -114, 959, 150, -7350, -13510, 31150, -672, 364, -106
56409, -89, 955, 157, -7140, -12670, 30870, -670, 360, -99
56410, -64, 954, 161, -6440, -10150, 30450, -663, 366, -109
