Time [mS], AccX [mg],AccY [mg],AccZ [mg],GyroX [mdps],GyroY [mdps],GyroZ [mdps],MagX [mgauss],MagY [mgauss],MagZ [mgauss]
176, 136, 992, 95, 140, 560, 3570, -442, 354, 19
177, 140, 988, 94, 210, 910, 4830, -447, 358, 25
178, 123, 998, 94, -210, 210, 7560, -441, 349, 21
179, 142, 984, 92, -210, 70, 8540, -436, 357, 10
180, 175, 981, 93, 0, 420, 9730, -432, 357, 21
181, 170, 968, 91, 140, 840, 7420, -444, 351, 16
182, 169, 968, 93, 210, 910, 4900, -436, 367, 22
183, 162, 975, 92, 350, 1260, 2660, -447, 355, 22
184, 156, 980, 92, 420, 1330, 1400, -444, 346, 13
185, 149, 984, 92, 210, 1050, 910, -445, 345, 21
186, 138, 989, 93, -350, -490, 980, -435, 348, 19
187, 147, 985, 94, -560, -1120, 1330, -445, 357, 19
188, 157, 984, 95, -630, -1260, 2310, -441, 361, 21
189, 163, 985, 97, -420, -700, 4130, -442, 358, 19
190, 159, 981, 96, -280, 140, 6930, -441, 349, 31
191, 151, 984, 95, -140, 350, 7280, -442, 361, 21
192, 156, 978, 95, -70, 210, 6370, -445, 358, 21
193, 165, 971, 96, -70, 70, 4690, -439, 354, 24
194, 171, 973, 96, -70, 0, 3430, -436, 351, 30
195, 163, 980, 94, 70, 490, 1120, -451, 358, 25
196, 166, 978, 92, 70, 420, 630, -441, 364, 22
197, 172, 977, 93, 70, 350, 1610, -441, 349, 22
198, 169, 979, 93, 0, 350, 2450, -447, 354, 18
199, 171, 979, 92, 0, 210, 2590, -441, 360, 18
200, 166, 981, 93, -210, 0, 2240, -441, 354, 28
201, 172, 976, 93, -210, -140, 3080, -438, 352, 19
202, 173, 980, 96, -210, -350, 4620, -442, 360, 33
203, 177, 979, 96, -70, -140, 6860, -444, 360, 22
204, 177, 980, 98, -140, 70, 8750, -448, 351, 27
205, 181, 979, 98, -140, -70, 8330, -442, 354, 12
206, 180, 972, 98, 0, 140, 7630, -445, 360, 31
207, 178, 973, 97, 70, 210, 6860, -445, 361, 21
208, 180, 975, 99, 210, 350, 7140, -445, 357, 30
209, 171, 974, 97, 350, 490, 1610, -453, 355, 24
210, 175, 978, 97, 0, -210, 350, -445, 351, 28
211, 171, 981, 95, 140, -140, -70, -451, 360, 33
212, 172, 980, 96, 70, -210, -280, -453, 343, 19
213, 175, 979, 96, 70, -280, -280, -451, 360, 13
214, 217, 992, 97, 350, 560, 2590, -445, 354, 22
215, 229, 961, 100, 1190, 2520, 4760, -447, 355, 18
216, 200, 977, 96, 630, 1050, 10220, -450, 342, 15
217, 100, 972, 100, 420, 280, 5460, -444, 354, 19
218, 187, 983, 97, 420, 1050, -560, -441, 357, 30
219, 229, 976, 103, 980, 2660, -560, -448, 363, 24
220, 330, 921, 97, -630, -2450, 5810, -453, 360, 40
221, 227, 937, 92, -980, -3360, 16380, -451, 355, 24
222, -98, 1071, 86, 490, 350, 3640, -453, 358, 33
223, 178, 977, 87, -630, -1260, -5530, -454, 355, 31
224, 176, 979, 88, -420, -1050, -5460, -457, 355, 28
225, 176, 977, 86, -210, -770, -5880, -447, 360, 21
226, 193, 973, 87, 210, 420, -5600, -451, 360, 28
227, 178, 977, 87, 350, 840, -4130, -442, 357, 18
228, 164, 980, 88, 700, 1680, -2730, -448, 352, 27
229, 168, 977, 92, 490, 1260, -2310, -441, 361, 25
230, 168, 977, 93, 560, 1470, -1750, -442, 349, 25
231, 175, 980, 95, 140, 0, -1680, -445, 358, 21
232, 181, 977, 98, 0, 0, -1750, -438, 352, 19
233, 176, 977, 98, -70, 140, -1680, -445, 351, 28
234, 178, 977, 97, 0, 210, -1470, -447, 357, 30
235, 174, 978, 96, 0, 280, -1470, -454, 357, 25
236, 179, 977, 94, 70, 210, -1400, -453, 361, 28
237, 180, 975, 94, 0, 70, -1540, -445, 357, 21
238, 179, 976, 94, -140, 0, -1610, -445, 355, 25
239, 181, 976, 93, -70, 70, -1610, -445, 358, 24
240, 177, 977, 92, -140, 0, -1680, -448, 355, 28
241, 178, 978, 94, -70, -350, -1890, -441, 358, 36
242, 176, 976, 95, -210, -420, -1890, -447, 355, 25
243, 175, 976, 95, -210, -420, -1960, -444, 357, 25
244, 177, 975, 96, -140, -420, -2030, -445, 358, 22
245, 177, 976, 97, -210, -350, -1960, -435, 361, 21
246, 175, 978, 97, -140, -140, -2030, -454, 369, 28
247, 172, 978, 97, -70, -140, -2100, -451, 364, 18
248, 173, 976, 98, -70, -70, -2100, -448, 357, 24
249, 173, 978, 98, -140, -140, -2100, -454, 357, 21
250, 174, 979, 99, 0, -70, -2100, -445, 361, 24
251, 172, 975, 101, -70, 70, -2100, -453, 369, 15
252, 170, 975, 100, -70, 70, -2170, -447, 357, 27
253, 170, 976, 98, -70, 140, -2100, -453, 357, 25
254, 169, 979, 99, 0, 70, -2100, -450, 364, 28
255, 171, 979, 97, -70, 0, -2170, -438, 355, 21
256, 170, 978, 92, -70, 70, -2240, -442, 364, 31
257, 166, 977, 93, -70, 70, -2240, -445, 361, 21
258, 167, 978, 91, -70, 70, -2100, -444, 355, 28
259, 166, 979, 89, 0, 140, -2170, -445, 349, 22
260, 166, 980, 88, -70, 70, -2240, -447, 358, 34
261, 167, 979, 88, -70, 140, -2170, -447, 357, 22
262, 165, 979, 87, -140, 70, -2240, -447, 349, 40
263, 167, 978, 87, -70, 70, -2170, -445, 357, 22
264, 165, 979, 88, -70, 70, -2170, -439, 355, 21
265, 167, 980, 88, -70, 140, -2170, -439, 364, 18
266, 168, 979, 89, -70, 140, -2170, -439, 352, 22
267, 168, 978, 91, -140, 140, -2170, -435, 355, 21
268, 171, 976, 91, -140, 210, -2310, -439, 364, 27
269, 172, 977, 92, -140, 70, -2590, -438, 355, 12
270, 178, 975, 94, -140, 70, -2730, -438, 354, 36
271, 180, 975, 95, -70, 140, -2870, -439, 360, 24
272, 181, 974, 97, -70, 140, -3080, -451, 355, 21
273, 183, 973, 96, -140, 210, -3290, -433, 355, 22
274, 183, 973, 98, -70, 140, -3710, -438, 358, 22
275, 183, 972, 99, -70, 210, -3920, -438, 355, 16
276, 183, 973, 99, -140, 280, -4270, -438, 361, 22
277, 183, 972, 100, -70, 350, -4550, -444, 351, 21
278, 183, 972, 99, -70, 280, -4830, -447, 351, 25
279, 184, 973, 98, -70, 280, -5460, -441, 357, 28
280, 185, 973, 95, -70, 350, -5810, -441, 358, 24
281, 186, 973, 95, -70, 350, -6090, -438, 352, 22
282, 187, 973, 92, -140, 350, -6370, -451, 354, 28
283, 187, 973, 92, -140, 420, -7070, -433, 348, 21
284, 187, 971, 90, -140, 350, -7490, -435, 354, 30
285, 187, 973, 90, -210, 350, -7770, -436, 351, 13
286, 186, 972, 90, -140, 490, -8050, -435, 358, 10
287, 185, 972, 91, -140, 560, -8470, -433, 351, 16
288, 179, 973, 93, -140, 630, -9310, -445, 352, 24
289, 175, 974, 94, -140, 770, -9660, -438, 345, 25
290, 172, 977, 90, -70, 770, -9940, -430, 349, 25
291, 154, 986, 90, -420, 630, -10150, -441, 351, 18
292, 165, 983, 70, -490, 420, -10430, -432, 351, 21
293, 125, 988, 92, -560, 630, -10500, -430, 355, 24
294, 88, 1013, 53, -630, 770, -10430, -433, 348, 30
295, -3, 1043, 56, -630, 560, -9660, -429, 343, 16
296, 4, 1017, 87, -840, -140, -8540, -438, 355, 27
297, 47, 947, 99, -910, -3080, -5600, -439, 357, 22
298, 84, 1009, 95, -560, -2590, -5810, -436, 354, 22
299, 63, 1039, 91, -630, -2310, -5250, -433, 349, 21
300, 55, 1028, 104, -420, -700, -5530, -432, 349, 21
301, 83, 1005, 113, -700, -630, -4340, -427, 343, 30
302, 48, 974, 128, -490, -770, -1820, -433, 352, 22
303, 6, 975, 139, 210, 350, -980, -432, 349, 21
304, 45, 992, 131, 630, 1190, 350, -439, 348, 13
305, 23, 1022, 124, 1050, 2100, 700, -433, 351, 12
306, 74, 1008, 127, 700, 1190, 1820, -433, 349, 19
307, 130, 986, 125, -210, -1400, 2940, -433, 345, 28
308, 123, 991, 117, -280, -1400, 2940, -436, 355, 21
309, 185, 965, 117, -210, -840, 3150, -433, 352, 24
310, 148, 965, 111, 350, 350, 2590, -433, 354, 18
311, 182, 990, 97, 700, 1120, 1470, -435, 352, 22
312, 173, 983, 95, 490, 770, 1400, -433, 345, 30
313, 136, 993, 87, 420, 770, 1120, -435, 348, 18
314, 146, 988, 84, 280, 980, 1190, -426, 349, 15
315, 100, 998, 78, 280, 1330, 1120, -438, 342, 22
316, 92, 988, 75, 210, 1120, 1540, -433, 358, 19
317, 115, 984, 76, 140, 490, 1960, -444, 349, 21
318, 92, 998, 68, 210, 0, 2170, -439, 348, 22
319, 109, 993, 71, 140, -210, 2380, -435, 349, 18
320, 98, 995, 66, 140, -70, 2450, -442, 349, 21
321, 112, 991, 74, 0, -140, 3080, -436, 355, 24
322, 121, 989, 83, -70, -70, 3430, -429, 351, 22
323, 101, 995, 86, 0, 0, 3710, -438, 346, 22
324, 116, 990, 93, -70, -140, 3920, -441, 343, 28
325, 132, 982, 98, -70, -770, 4200, -432, 351, 12
326, 127, 985, 100, -70, -700, 4340, -435, 348, 19
327, 135, 983, 103, -70, -350, 4340, -439, 349, 18
328, 127, 990, 103, 0, -140, 4410, -433, 349, 22
329, 127, 986, 107, -70, -140, 4550, -436, 354, 24
330, 108, 983, 111, -70, -700, 5040, -436, 348, 25
331, 99, 988, 110, 0, -840, 5390, -433, 348, 34
332, 99, 990, 111, 0, -910, 5670, -439, 354, 24
333, 102, 993, 109, 70, -910, 6160, -436, 355, 18
334, 107, 994, 106, 0, -840, 6650, -435, 349, 19
335, 103, 995, 100, -70, -840, 7560, -436, 348, 9
336, 110, 987, 99, -70, -910, 7980, -444, 346, 28
337, 115, 980, 98, -70, -1120, 8260, -436, 357, 22
338, 130, 977, 98, 0, -1400, 8540, -444, 351, 31
339, 133, 990, 95, 140, -1400, 8960, -442, 361, 24
340, 131, 993, 95, 210, -910, 9100, -433, 357, 24
341, 134, 991, 94, 210, -770, 9380, -438, 361, 33
342, 132, 987, 91, 140, -840, 9730, -444, 352, 24
343, 134, 982, 92, 0, -840, 10080, -444, 360, 24
344, 151, 981, 92, 140, -630, 10430, -439, 358, 21
345, 161, 981, 88, 140, -560, 10430, -441, 357, 31
346, 179, 974, 89, 140, -770, 10500, -445, 348, 27
347, 195, 965, 86, 140, -630, 10220, -448, 352, 19
348, 218, 946, 90, 140, -420, 9800, -444, 364, 25
349, 230, 971, 86, 210, -70, 8470, -435, 351, 27
350, 228, 976, 87, 140, -420, 7910, -454, 358, 19
351, 235, 970, 85, 0, -770, 7210, -450, 358, 33
352, 239, 965, 80, -140, -910, 6510, -451, 345, 16
353, 250, 950, 79, -210, -560, 4970, -442, 360, 25
354, 253, 953, 82, -210, -280, 4130, -444, 354, 22
355, 254, 961, 83, 0, 70, 3360, -448, 366, 28
356, 246, 967, 86, 70, 140, 2520, -442, 363, 22
357, 245, 960, 89, 70, 0, 1750, -451, 360, 21
358, 255, 954, 90, -70, -350, 140, -447, 355, 28
359, 253, 965, 89, -280, -140, -630, -448, 358, 15
360, 254, 977, 82, -420, 70, -1470, -453, 361, 18
361, 238, 980, 82, -560, 630, -2170, -457, 360, 28
362, 193, 1004, 78, -560, 1330, -2450, -445, 367, 28
363, 1, 1013, 107, 420, 3570, 0, -445, 360, 27
364, -73, 899, 124, 1050, 3570, 1890, -451, 358, 24
365, -14, 897, 115, 1120, 1400, 3430, -447, 360, 30
366, 0, 1022, 105, 1120, -910, 3850, -456, 366, 27
367, 62, 1091, 135, 70, -1960, 6930, -453, 364, 33
368, 102, 1036, 125, -350, -840, 9170, -448, 357, 21
369, 70, 981, 107, -420, 630, 10290, -441, 361, 15
370, 105, 911, 114, -420, 350, 11270, -456, 367, 31
371, 109, 912, 126, -280, -1050, 11060, -448, 358, 24
372, 246, 1022, 110, -210, -4970, 10430, -450, 352, 24
373, 308, 997, 103, -140, -5110, 10010, -456, 360, 24
374, 281, 956, 101, 0, -3570, 9100, -456, 366, 27
375, 302, 923, 96, 70, -1400, 8470, -447, 370, 28
376, 262, 940, 86, 280, 1820, 7000, -460, 357, 31
377, 231, 968, 92, 140, 1470, 6160, -451, 360, 19
378, 255, 966, 92, 70, 140, 5460, -451, 364, 30
379, 235, 970, 85, 70, -1050, 4690, -450, 357, 28
380, 268, 949, 81, 140, -1470, 4060, -453, 366, 21
381, 272, 942, 81, 420, -210, 2660, -451, 363, 25
382, 252, 973, 77, 280, 420, 2100, -456, 361, 31
383, 267, 980, 80, 70, 630, 1680, -457, 357, 28
384, 236, 977, 84, -70, 420, 1190, -454, 367, 27
385, 241, 958, 91, -70, 350, 630, -451, 361, 27
386, 233, 945, 97, 420, 420, -490, -459, 361, 30
387, 222, 951, 96, 630, 560, -700, -459, 366, 30
388, 231, 965, 97, 630, 770, -1050, -453, 367, 24
389, 217, 986, 97, 560, 770, -1120, -444, 361, 25
390, 214, 984, 104, 280, 1120, -1400, -454, 363, 25
391, 204, 957, 110, 280, 1050, -1680, -460, 361, 19
392, 207, 962, 103, 140, 560, -1820, -447, 364, 31
393, 208, 969, 98, 0, 350, -1960, -453, 370, 25
394, 189, 981, 95, 0, 980, -1820, -454, 358, 37
395, 159, 983, 84, 700, 3430, -980, -463, 363, 27
396, 150, 983, 82, 700, 3430, -840, -454, 366, 30
397, 163, 977, 78, 490, 1820, -700, -462, 367, 24
398, 176, 975, 74, -140, -630, -840, -456, 361, 19
399, 218, 976, 73, -840, -2800, -980, -453, 363, 28
400, 260, 950, 94, -560, -2590, -1680, -454, 369, 24
401, 253, 944, 101, 210, -560, -2170, -448, 364, 21
402, 249, 960, 99, 840, 1540, -2520, -465, 372, 33
403, 219, 984, 93, 910, 2520, -2800, -456, 357, 18
404, 204, 986, 93, -70, 1120, -3080, -447, 361, 30
405, 190, 974, 93, -560, -70, -3290, -454, 367, 16
406, 196, 972, 88, -840, -700, -3570, -453, 363, 30
407, 222, 961, 85, -770, -910, -3920, -463, 364, 16
408, 237, 954, 83, -630, -910, -4200, -453, 361, 33
409, 250, 954, 85, -70, 70, -5110, -448, 360, 33
410, 240, 958, 91, 420, 1260, -5600, -445, 363, 33
411, 208, 963, 92, 700, 2240, -5880, -447, 363, 31
412, 190, 976, 93, 840, 2870, -6090, -441, 367, 22
413, 163, 987, 94, 700, 3010, -6090, -454, 367, 34
414, 115, 998, 103, 350, 2170, -5110, -445, 352, 30
415, 92, 1001, 107, 350, 1890, -4340, -442, 346, 15
416, 75, 1005, 105, 350, 1330, -3360, -453, 361, 22
417, 68, 1005, 100, 210, 560, -2380, -453, 363, 22
418, 74, 1001, 95, -560, -1400, -490, -463, 354, 27
419, 114, 995, 91, -770, -1750, 350, -442, 367, 24
420, 132, 991, 89, -770, -1680, 980, -444, 366, 28
421, 146, 987, 88, -630, -1190, 1610, -442, 357, 37
422, 151, 983, 86, -350, -630, 2030, -445, 355, 18
423, 151, 979, 83, 70, -140, 2800, -445, 367, 24
424, 154, 980, 85, 70, -350, 3150, -451, 363, 16
425, 157, 983, 87, 0, -560, 3430, -451, 363, 24
426, 163, 983, 89, -70, -770, 3710, -453, 364, 19
427, 161, 985, 91, -70, -560, 3920, -441, 366, 30
428, 159, 981, 96, -70, -280, 4480, -444, 364, 30
429, 159, 978, 97, -70, -280, 4760, -454, 363, 25
430, 156, 979, 100, 0, -420, 5110, -451, 363, 27
431, 159, 978, 103, 70, -560, 5460, -453, 358, 27
432, 163, 977, 107, 70, -1050, 5810, -460, 363, 30
433, 182, 972, 110, 140, -1330, 5810, -456, 366, 24
434, 194, 967, 111, 0, -1540, 5880, -436, 354, 12
435, 200, 970, 106, -70, -1540, 5950, -447, 364, 22
436, 205, 976, 103, -70, -1260, 5880, -450, 364, 33
437, 195, 980, 96, -70, -280, 5950, -457, 360, 24
438, 186, 984, 89, -70, -70, 6020, -450, 361, 21
439, 182, 981, 84, -140, -70, 6160, -457, 366, 24
440, 169, 976, 81, -140, -280, 6370, -451, 361, 28
441, 166, 971, 80, -140, -560, 6650, -457, 364, 25
442, 192, 982, 67, -280, -1400, 6860, -453, 354, 28
443, 202, 982, 66, -350, -1330, 7000, -459, 366, 25
444, 211, 968, 72, -280, -1120, 6930, -453, 369, 9
445, 213, 962, 75, -210, -910, 6930, -453, 369, 27
446, 219, 971, 76, -210, -910, 6720, -450, 363, 33
447, 214, 967, 84, -140, -770, 6650, -462, 372, 30
448, 205, 962, 94, -70, -630, 6650, -462, 358, 36
449, 204, 966, 98, 70, -700, 6580, -457, 370, 25
450, 211, 972, 100, 140, -770, 6650, -460, 363, 33
451, 226, 965, 106, 70, -910, 6370, -459, 372, 31
452, 235, 964, 108, -210, -1050, 6090, -456, 357, 25
453, 242, 964, 109, -280, -1120, 5880, -465, 369, 25
454, 245, 962, 110, -350, -1050, 5600, -462, 363, 28
455, 242, 959, 112, -210, -840, 5460, -456, 364, 30
456, 225, 957, 116, 350, 140, 5110, -460, 366, 19
457, 215, 959, 115, 490, 350, 4970, -462, 370, 33
458, 214, 964, 113, 630, 140, 4970, -456, 358, 30
459, 219, 970, 108, 350, -350, 4900, -456, 364, 24
460, 248, 967, 104, -70, -840, 4480, -466, 373, 34
461, 268, 958, 100, -210, -700, 4060, -463, 367, 28
462, 278, 952, 96, -70, -420, 3570, -459, 366, 30
463, 284, 948, 91, 0, -140, 3010, -456, 366, 28
464, 280, 951, 85, 210, 210, 2520, -459, 364, 31
465, 263, 962, 72, 70, 700, 1470, -459, 360, 30
466, 256, 964, 68, 0, 630, 980, -468, 366, 30
467, 245, 964, 67, -70, 630, 630, -465, 378, 28
468, 239, 963, 67, -140, 560, 490, -465, 379, 24
469, 229, 961, 66, -140, 280, 280, -466, 375, 39
470, 230, 973, 64, -140, 140, 70, -468, 364, 28
471, 235, 973, 68, -140, 210, 0, -459, 369, 33
472, 235, 969, 72, -140, 210, -210, -465, 363, 30
473, 239, 960, 78, -210, -70, -350, -463, 369, 25
474, 245, 958, 87, -140, 70, -770, -460, 369, 30
475, 242, 961, 91, 0, 420, -980, -463, 357, 31
476, 236, 966, 96, 70, 700, -1120, -459, 370, 31
477, 223, 970, 100, 70, 980, -1050, -457, 369, 25
478, 210, 973, 102, 140, 910, -980, -460, 373, 28
479, 193, 969, 109, -70, 140, -700, -462, 357, 25
480, 194, 967, 113, -140, -210, -490, -465, 370, 31
481, 202, 969, 114, -210, -350, -420, -465, 360, 24
482, 207, 971, 115, -140, -420, -140, -468, 370, 30
483, 211, 968, 117, -70, -210, 0, -457, 370, 28
484, 197, 978, 114, 280, 840, 490, -466, 361, 30
485, 181, 975, 109, 210, 560, 910, -457, 367, 27
486, 175, 968, 108, -70, -210, 1190, -462, 373, 28
487, 185, 971, 108, -70, -700, 1540, -462, 369, 28
488, 201, 985, 100, 140, 70, 2240, -463, 375, 37
489, 185, 978, 97, 280, 770, 2730, -460, 369, 37
490, 176, 973, 88, 350, 910, 3290, -465, 372, 28
491, 160, 979, 82, 140, 560, 3780, -457, 370, 25
492, 169, 977, 82, 0, -140, 4200, -472, 372, 33
493, 198, 982, 80, -140, -1050, 5110, -463, 361, 27
494, 205, 980, 80, 70, -770, 5390, -469, 378, 25
495, 210, 970, 81, 280, -140, 5880, -462, 375, 25
496, 198, 967, 80, 420, 350, 6230, -459, 370, 37
497, 192, 973, 80, 420, 630, 6510, -472, 372, 34
498, 189, 982, 81, 70, 210, 7280, -466, 367, 27
499, 191, 980, 84, -70, -210, 7770, -463, 376, 31
500, 199, 974, 86, -140, -630, 8120, -471, 376, 30
501, 204, 971, 84, -70, -770, 8470, -469, 366, 34
502, 211, 969, 89, 0, -420, 9030, -474, 373, 33
503, 215, 966, 91, 70, -490, 9240, -471, 367, 27
504, 223, 965, 92, 70, -770, 9450, -474, 378, 30
505, 235, 963, 94, -70, -1050, 9450, -463, 375, 28
506, 245, 959, 97, -70, -1190, 9590, -472, 373, 31
507, 261, 954, 103, 70, -840, 9310, -468, 370, 31
508, 266, 953, 105, 210, -560, 9170, -475, 375, 30
509, 267, 955, 105, 280, -420, 9030, -472, 375, 25
510, 267, 953, 105, 210, -420, 8820, -469, 369, 28
511, 269, 953, 105, 140, -420, 8400, -474, 372, 27
512, 271, 952, 102, 70, -420, 8190, -469, 378, 25
513, 270, 952, 101, 70, -420, 7910, -468, 376, 25
514, 273, 953, 100, 70, -420, 7840, -472, 373, 31
515, 273, 954, 96, 140, -630, 7560, -468, 375, 42
516, 279, 953, 91, 0, -700, 7070, -472, 381, 21
517, 287, 951, 89, 0, -770, 6790, -483, 372, 27
518, 288, 950, 87, 0, -700, 6580, -477, 373, 34
519, 291, 948, 88, 70, -490, 6300, -465, 369, 24
520, 287, 949, 89, 140, -350, 6020, -472, 379, 24
521, 279, 957, 82, 140, -140, 5530, -462, 370, 30
522, 281, 958, 78, -70, -420, 5320, -484, 372, 31
523, 282, 958, 76, -210, -560, 5110, -475, 372, 25
524, 287, 951, 77, -350, -560, 4900, -469, 370, 25
525, 289, 946, 79, -70, -140, 4410, -480, 370, 24
526, 285, 946, 84, 140, 70, 4270, -477, 376, 33
527, 282, 951, 85, 350, 70, 4060, -478, 376, 34
528, 279, 958, 84, 210, 0, 3920, -480, 373, 30
529, 278, 959, 85, 70, 0, 3780, -486, 376, 31
530, 270, 952, 94, 0, 420, 3780, -478, 376, 34
531, 260, 951, 100, 210, 910, 3850, -484, 381, 34
532, 248, 952, 104, 350, 1050, 4130, -472, 378, 37
533, 235, 958, 105, 560, 1050, 4410, -471, 376, 33
534, 228, 965, 100, 560, 770, 4760, -478, 376, 40
535, 226, 978, 90, -70, -350, 5600, -483, 372, 27
536, 232, 976, 88, -420, -490, 6020, -472, 376, 37
537, 236, 970, 87, -490, -350, 6580, -480, 376, 15
538, 235, 963, 87, -280, 280, 7210, -475, 379, 30
539, 229, 957, 91, 770, 1680, 8400, -477, 375, 31
540, 209, 952, 98, 1120, 1820, 9030, -487, 373, 37
541, 207, 962, 97, 1190, 1330, 9660, -495, 367, 30
542, 218, 971, 94, 840, 280, 10220, -483, 369, 33
543, 233, 974, 94, 140, -1120, 10570, -478, 375, 39
544, 281, 956, 104, -770, -2870, 11060, -483, 378, 37
545, 294, 947, 102, -700, -2660, 11200, -483, 379, 22
546, 312, 945, 95, -420, -1890, 11130, -483, 373, 39
547, 305, 944, 93, -70, -700, 11130, -483, 382, 36
548, 290, 938, 97, 280, -70, 11270, -493, 373, 33
549, 265, 941, 99, 630, -280, 11480, -480, 384, 37
550, 261, 956, 98, 420, -980, 11690, -478, 384, 33
551, 264, 960, 99, 280, -1750, 11900, -484, 378, 36
552, 268, 956, 103, 70, -2170, 12250, -496, 381, 34
553, 277, 955, 103, -210, -2170, 12880, -486, 379, 27
554, 281, 949, 104, -70, -1820, 13300, -489, 379, 36
555, 278, 942, 104, -70, -1750, 13650, -498, 382, 21
556, 282, 942, 103, 0, -1820, 13860, -489, 378, 40
557, 284, 946, 98, 0, -2030, 14000, -489, 385, 33
558, 295, 941, 94, -140, -2870, 14490, -498, 376, 33
559, 306, 938, 94, -280, -3150, 14560, -487, 381, 34
560, 312, 940, 92, -280, -3360, 14630, -493, 385, 34
561, 320, 939, 93, -280, -3360, 14700, -489, 390, 34
562, 326, 933, 96, -350, -3430, 14700, -486, 376, 37
563, 339, 926, 99, -70, -3220, 14490, -498, 388, 33
564, 346, 927, 100, 0, -3010, 14420, -499, 381, 22
565, 349, 930, 98, 0, -2800, 14280, -498, 391, 30
566, 356, 932, 95, 0, -2730, 14070, -501, 379, 33
567, 361, 935, 90, -350, -2520, 13510, -505, 387, 25
568, 378, 928, 85, -280, -2170, 13160, -501, 393, 30
569, 387, 922, 78, -420, -1890, 12740, -498, 384, 33
570, 395, 922, 69, -490, -1680, 12180, -501, 388, 37
571, 403, 915, 66, -630, -1960, 11620, -504, 391, 33
572, 420, 887, 72, -350, -2100, 10080, -516, 381, 42
573, 432, 891, 71, 0, -1680, 9240, -508, 382, 39
574, 442, 901, 68, 420, -980, 8400, -498, 381, 27
575, 442, 912, 65, 560, 0, 7560, -508, 387, 31
576, 435, 916, 66, 560, 700, 6790, -507, 385, 33
577, 421, 918, 64, 280, 1120, 5250, -513, 393, 34
578, 419, 913, 62, 0, 910, 4410, -510, 385, 34
579, 423, 907, 61, -210, 490, 3640, -498, 384, 37
580, 431, 902, 63, -350, 70, 2800, -505, 379, 39
581, 441, 898, 67, -140, 210, 980, -496, 381, 40
582, 447, 893, 77, 210, 910, 70, -501, 388, 36
583, 440, 891, 85, 560, 1400, -770, -511, 397, 45
584, 430, 896, 89, 700, 1610, -1680, -516, 385, 33
585, 427, 910, 90, 560, 1400, -2590, -505, 391, 45
586, 429, 919, 94, -210, 770, -4270, -510, 388, 33
587, 425, 909, 102, -280, 770, -4970, -505, 391, 31
588, 418, 899, 107, -210, 980, -5740, -505, 388, 43
589, 412, 904, 103, 0, 1050, -6370, -502, 387, 39
590, 403, 913, 100, 70, 1540, -6930, -507, 393, 43
591, 376, 919, 101, 350, 2450, -7700, -508, 378, 34
592, 358, 923, 97, 420, 2590, -7910, -511, 387, 39
593, 342, 929, 99, 420, 2450, -7980, -510, 390, 45
594, 323, 937, 95, 210, 1610, -7910, -504, 384, 37
595, 318, 950, 74, -560, -140, -7700, -499, 378, 31
596, 322, 950, 67, -1120, -700, -7560, -501, 385, 36
597, 325, 946, 63, -1190, -770, -7280, -498, 388, 27
598, 323, 936, 63, -1190, -490, -7000, -502, 384, 37
599, 317, 930, 67, -840, -140, -6650, -499, 384, 37
600, 299, 918, 85, 420, 1610, -5950, -502, 387, 33
601, 292, 932, 81, 840, 1890, -5600, -498, 391, 34
602, 290, 956, 76, 770, 1610, -5180, -499, 388, 42
603, 292, 975, 72, 140, 840, -4760, -496, 387, 39
604, 298, 974, 76, -630, 140, -4200, -502, 381, 39
605, 311, 934, 92, -980, 70, -3570, -499, 384, 28
606, 310, 918, 99, -560, 350, -3360, -504, 385, 31
607, 310, 915, 102, 70, 700, -2940, -498, 384, 27
608, 305, 925, 101, 490, 840, -2660, -496, 379, 37
609, 304, 958, 95, 350, 490, -2170, -499, 378, 39
610, 309, 961, 95, -140, 280, -1960, -499, 384, 40
611, 310, 956, 98, -420, 210, -1680, -501, 382, 25
612, 312, 942, 104, -560, 210, -1330, -505, 390, 36
613, 308, 929, 110, -490, 350, -1050, -505, 388, 28
614, 302, 927, 112, 140, 350, -490, -498, 381, 34
615, 303, 936, 109, 350, 210, -280, -501, 385, 31
616, 304, 946, 105, 350, 0, -70, -511, 390, 33
617, 310, 951, 102, 140, -140, 280, -492, 379, 31
618, 312, 951, 100, -210, -70, 490, -495, 376, 39
619, 308, 937, 100, -280, 70, 1050, -496, 378, 28
620, 304, 932, 100, -140, 140, 1330, -496, 382, 39
621, 301, 933, 98, 70, -70, 1610, -496, 375, 45
622, 303, 937, 95, 280, -210, 1890, -507, 387, 30
623, 312, 947, 86, 140, -280, 2380, -496, 379, 37
624, 314, 949, 85, 0, -140, 2660, -502, 382, 45
625, 312, 947, 84, -140, -70, 2870, -499, 385, 28
626, 308, 942, 85, -140, 0, 3220, -499, 388, 34
627, 306, 938, 85, -140, -70, 3500, -501, 381, 33
628, 305, 936, 84, 70, -420, 4060, -504, 384, 48
629, 310, 939, 83, 210, -560, 4340, -495, 382, 34
630, 314, 944, 81, 140, -350, 4690, -495, 381, 39
631, 315, 946, 82, 70, -280, 4900, -499, 387, 37
632, 313, 946, 83, -70, -210, 5250, -505, 382, 45
633, 309, 938, 88, -70, -350, 5880, -502, 381, 33
634, 309, 935, 90, -70, -420, 6230, -499, 381, 34
635, 310, 934, 92, 70, -490, 6510, -507, 388, 27
636, 313, 935, 92, 70, -630, 6860, -510, 387, 36
637, 221, 953, 71, -350, -2030, 7350, -507, 385, 34
638, 237, 905, 84, -1610, -5880, 8190, -508, 399, 37
639, 478, 906, 131, -1260, -4830, 8680, -502, 379, 40
640, 801, 689, 240, 5110, 12670, 7000, -510, 391, 39
641, 611, 787, 226, 15190, 39550, 4900, -493, 375, 40
642, 200, 1081, 19, 4760, 13090, 2940, -507, 385, 37
643, 282, 1057, 29, -4480, -11480, 3220, -511, 382, 37
644, 304, 923, 110, -8540, -22120, 2520, -504, 382, 28
645, 604, 721, 240, -4900, -13510, -420, -504, 390, 49
646, 647, 717, 248, 3010, 23800, -4270, -508, 387, 45
647, 654, 907, 172, 15050, 38710, -3500, -505, 378, 37
648, 500, 940, 118, 16590, 48230, -2870, -511, 390, 46
649, 386, 890, 200, 17570, 55230, -3920, -507, 384, 39
650, 341, 938, 154, 16730, 58800, -6300, -504, 387, 43
651, 353, 956, 130, 13160, 50960, -8680, -495, 387, 42
652, 349, 901, 174, 11340, 43260, -8330, -501, 387, 51
653, 344, 879, 188, 10360, 36400, -7840, -496, 375, 42
654, 310, 911, 165, 9870, 30800, -7700, -507, 390, 45
655, 281, 951, 140, 9380, 25830, -8260, -499, 387, 51
656, 352, 924, 150, 7980, 19320, -10150, -502, 382, 55
657, 431, 903, 149, 7910, 20160, -11130, -489, 391, 54
658, 490, 907, 142, 8190, 22750, -11760, -504, 387, 61
659, 474, 932, 131, 8470, 26180, -11970, -501, 381, 48
660, 419, 941, 135, 9310, 32200, -12390, -499, 378, 58
661, 308, 920, 137, 10080, 34300, -12740, -499, 382, 54
662, 298, 908, 141, 10780, 35420, -12880, -490, 375, 52
663, 294, 905, 139, 11550, 35420, -12670, -492, 390, 61
664, 294, 913, 143, 11900, 34440, -12180, -492, 385, 57
665, 284, 943, 134, 11830, 31080, -11480, -499, 388, 64
666, 311, 950, 141, 11760, 30450, -11270, -499, 382, 67
667, 305, 965, 130, 11760, 31150, -11130, -489, 381, 66
668, 306, 971, 132, 11690, 32620, -10990, -493, 370, 69
669, 282, 981, 126, 11620, 33810, -10850, -490, 376, 61
670, 261, 963, 128, 11410, 34860, -9660, -486, 378, 78
671, 229, 951, 127, 11200, 33740, -8890, -493, 384, 66
672, 193, 958, 124, 10570, 31500, -7980, -492, 378, 75
673, 169, 969, 124, 10010, 28910, -7000, -480, 378, 73
674, 146, 977, 119, 8330, 21630, -4830, -480, 372, 78
675, 149, 978, 113, 7210, 17500, -3640, -477, 379, 81
676, 151, 982, 111, 6090, 13510, -2450, -487, 376, 72
677, 162, 986, 113, 4900, 10010, -1190, -489, 367, 81
678, 180, 984, 118, 4130, 8120, 0, -486, 384, 78
679, 188, 981, 118, 3220, 7210, 2660, -490, 379, 78
680, 183, 992, 119, 2730, 7070, 3920, -495, 376, 69
681, 170, 1005, 115, 2240, 6860, 5180, -493, 387, 81
682, 172, 998, 124, 1680, 6370, 6370, -490, 373, 82
683, 175, 992, 124, 1190, 5600, 7490, -483, 379, 84
684, 183, 983, 131, -280, 2240, 10080, -486, 369, 79
685, 192, 979, 141, -910, 350, 11200, -486, 385, 78
686, 202, 976, 146, -1470, -910, 12250, -486, 387, 79
687, 215, 970, 152, -2030, -2100, 13230, -496, 381, 75
688, 245, 967, 154, -2800, -3780, 14560, -483, 387, 81
689, 267, 958, 166, -3290, -4760, 14980, -499, 376, 81
690, 293, 944, 178, -3500, -4970, 15260, -490, 387, 82
691, 316, 932, 180, -3500, -4410, 15330, -493, 378, 67
692, 347, 918, 180, -3430, -3640, 15260, -490, 376, 72
693, 369, 904, 191, -2730, -420, 14630, -487, 384, 82
694, 383, 893, 192, -2450, 1190, 14070, -504, 375, 79
695, 403, 886, 195, -2030, 2590, 13230, -492, 381, 75
696, 428, 881, 210, -1610, 3640, 12320, -495, 379, 73
697, 454, 879, 226, -1050, 5180, 11340, -502, 385, 88
698, 461, 903, 229, -70, 8750, 9240, -499, 388, 75
699, 449, 901, 239, 350, 10500, 8330, -498, 387, 75
700, 430, 891, 244, 770, 11830, 7560, -498, 379, 79
701, 397, 884, 248, 980, 12250, 6860, -502, 384, 82
702, 364, 877, 264, 840, 9380, 5600, -496, 384, 72
703, 334, 873, 265, 630, 6440, 5110, -501, 393, 75
704, 340, 869, 272, 280, 3360, 4690, -504, 390, 82
705, 348, 876, 272, 0, 770, 4270, -499, 376, 72
706, 332, 874, 274, -350, -1330, 3990, -505, 394, 85
707, 275, 873, 260, -1120, -5320, 3710, -508, 379, 84
708, 262, 864, 263, -1890, -8820, 3710, -505, 384, 82
709, 239, 861, 263, -2800, -13160, 3850, -505, 390, 72
710, 221, 875, 255, -3780, -18410, 4060, -502, 387, 79
711, 212, 902, 258, -4690, -24150, 4200, -501, 384, 76
712, 235, 967, 243, -6160, -34090, 4690, -502, 382, 76
713, 261, 996, 235, -6720, -36960, 4970, -502, 382, 67
714, 291, 1014, 228, -7140, -38220, 5460, -496, 387, 73
715, 332, 1009, 222, -7280, -37100, 5950, -504, 385, 63
716, 356, 967, 195, -6440, -27790, 7210, -504, 387, 67
717, 354, 936, 197, -6160, -22120, 7630, -507, 384, 69
718, 324, 921, 199, -5950, -17780, 8190, -504, 390, 76
719, 265, 913, 203, -6020, -15470, 8680, -505, 385, 67
720, 252, 906, 208, -6370, -15120, 9450, -508, 396, 66
721, 225, 863, 230, -7000, -17570, 10990, -502, 400, 60
722, 203, 879, 228, -6930, -20020, 11830, -502, 385, 61
723, 189, 880, 231, -7280, -23450, 12810, -510, 387, 66
724, 175, 873, 226, -7700, -27720, 13790, -516, 390, 64
725, 194, 900, 202, -8470, -32200, 14840, -513, 388, 67
726, 365, 1128, 167, -9730, -34790, 16380, -517, 393, 70
727, 460, 1224, 157, -9800, -28700, 16520, -511, 400, 55
728, 506, 1224, 159, -8960, -17570, 16450, -511, 397, 61
729, 521, 1207, 143, -7350, -4060, 16170, -513, 399, 55
730, 418, 1131, 139, -5740, 11620, 17220, -517, 405, 66
731, 315, 932, 196, -5740, 11900, 18200, -519, 399, 54
732, 201, 761, 218, -5460, 8680, 19250, -519, 399, 60
733, 99, 720, 196, -5670, 1330, 20090, -529, 400, 64
734, 85, 754, 163, -6720, -10360, 21000, -529, 403, 64
735, 306, 788, 158, -10080, -29470, 21980, -517, 405, 57
736, 458, 856, 157, -10010, -27930, 21910, -520, 396, 64
737, 559, 947, 149, -8750, -20160, 21770, -528, 400, 55
738, 570, 1034, 149, -6930, -9800, 21560, -534, 394, 67
739, 532, 1089, 150, -5530, -630, 21280, -525, 400, 60
740, 508, 934, 173, -3780, 12180, 21140, -534, 399, 64
741, 490, 681, 226, -2380, 18270, 20580, -543, 399, 57
742, 411, 521, 257, -910, 22610, 19740, -538, 411, 51
743, 317, 519, 253, -70, 20790, 19180, -534, 403, 61
744, 128, 621, 248, -2240, -7980, 19390, -529, 403, 66
745, 88, 624, 267, -4130, -27440, 19530, -541, 402, 64
746, 99, 660, 235, -5880, -45080, 19320, -529, 400, 58
747, 180, 790, 179, -7420, -58870, 18620, -537, 399, 58
748, 349, 927, 145, -9100, -66710, 17920, -538, 403, 63
749, 713, 1032, 141, -10360, -58100, 15890, -540, 408, 57
750, 767, 996, 162, -9520, -44660, 14700, -544, 409, 58
751, 698, 879, 190, -8330, -30590, 13440, -541, 409, 48
752, 534, 744, 196, -7210, -20720, 12390, -549, 403, 55
753, 352, 654, 172, -6790, -18760, 11620, -540, 397, 57
754, 259, 841, 123, -9100, -33810, 10640, -546, 393, 43
755, 454, 1001, 132, -10780, -41020, 10360, -550, 409, 51
756, 652, 1238, 141, -11270, -41370, 9870, -541, 402, 58
757, 813, 1455, 136, -10570, -36470, 9380, -549, 403, 45
758, 728, 1362, 87, -8890, -25690, 8400, -549, 399, 51
759, 588, 1078, 116, -7630, -21210, 7210, -540, 402, 57
760, 485, 780, 144, -5740, -16100, 5740, -550, 405, 58
761, 418, 594, 124, -3640, -11340, 3570, -553, 403, 48
762, 413, 532, 110, -2450, -9170, 2170, -544, 400, 52
763, 512, 649, 71, -1680, -9170, 1190, -553, 396, 48
764, 583, 670, 101, -1330, -6510, 1120, -544, 402, 46
765, 561, 662, 138, -280, -700, 700, -550, 394, 52
766, 504, 721, 142, 1050, 5950, 0, -546, 394, 54
767, 438, 826, 121, 1680, 9170, -490, -546, 403, 45
768, 402, 843, 151, 980, 6790, -980, -543, 400, 46
769, 437, 740, 219, 1750, 8330, -1120, -547, 399, 46
770, 399, 696, 237, 3360, 8750, -1120, -543, 396, 45
771, 281, 736, 225, 4060, 1260, -280, -546, 394, 54
772, 187, 1036, 80, 560, -35000, 2870, -550, 394, 55
773, 374, 1055, 94, -1680, -44380, 3710, -546, 403, 46
774, 648, 955, 155, -1260, -35420, 3010, -552, 403, 48
775, 763, 860, 204, 2100, -11690, 1330, -547, 402, 48
776, 709, 879, 160, 5460, 11480, 140, -547, 405, 52
777, 411, 839, 68, 3500, 16870, 1820, -556, 396, 48
778, 382, 776, 95, 1540, 14140, 2730, -555, 406, 49
779, 546, 767, 152, 980, 19180, 3150, -549, 406, 45
780, 620, 912, 171, 2100, 31570, 2380, -541, 411, 39
781, 705, 1122, 168, 2660, 43540, 3640, -540, 396, 58
782, 532, 1253, 200, 1050, 34510, 5600, -543, 388, 40
783, 311, 1197, 184, -700, 19040, 7210, -550, 400, 45
784, 250, 1004, 197, -3360, 770, 8750, -555, 394, 57
785, 298, 795, 213, -4340, -10640, 8540, -550, 397, 45
786, 415, 778, 151, -2520, -14420, 6790, -547, 400, 42
787, 455, 871, 121, -1960, -16100, 6510, -541, 400, 39
788, 436, 898, 91, -2310, -20510, 6580, -547, 396, 46
789, 435, 808, 112, -2870, -24850, 7070, -556, 399, 49
790, 444, 732, 147, -2310, -24710, 6790, -553, 402, 54
791, 399, 805, 123, -350, -18550, 5740, -555, 409, 42
792, 392, 964, 70, -490, -19180, 5740, -550, 399, 51
793, 475, 1040, 67, -1260, -21000, 6090, -558, 408, 49
794, 503, 1025, 92, -1400, -20020, 6160, -550, 403, 51
795, 533, 960, 116, -700, -10080, 5600, -550, 399, 51
796, 494, 823, 99, -840, -6510, 5390, -555, 405, 48
797, 462, 770, 88, -1820, -5110, 5390, -552, 397, 49
798, 527, 760, 77, -2940, -3990, 5600, -555, 405, 52
799, 574, 891, 51, -3920, -1120, 5460, -553, 405, 39
800, 690, 906, 78, -5740, 11900, 4830, -561, 409, 48
801, 607, 880, 142, -5600, 20790, 4060, -561, 400, 46
802, 522, 909, 174, -5110, 24780, 3010, -556, 418, 46
803, 324, 1040, 136, -6160, 16870, 2730, -559, 412, 37
804, 270, 1056, 110, -9240, -2590, 3640, -553, 408, 36
805, 390, 686, 221, -12740, -33040, 4690, -562, 400, 34
806, 297, 713, 148, -11690, -35630, 3290, -559, 409, 34
807, 357, 709, 113, -11760, -39200, 2100, -556, 411, 34
808, 253, 715, 119, -12180, -43820, 490, -555, 411, 40
809, 327, 666, 127, -10010, -53130, -1470, -558, 412, 34
810, 275, 904, 51, -8750, -63000, -1400, -558, 406, 30
811, 278, 1098, -40, -10010, -79170, -560, -558, 418, 33
812, 413, 1084, -38, -12530, -92680, 1050, -564, 406, 34
813, 662, 896, 22, -12180, -87290, 1330, -559, 414, 36
814, 939, 1099, -25, -2940, -24850, -1890, -561, 403, 39
815, 916, 1388, -109, 420, 4410, -3010, -564, 414, 33
816, 802, 1446, -151, 1120, 22680, -3010, -567, 409, 30
817, 700, 1129, -34, 1190, 35910, -3010, -556, 411, 34
818, 640, 733, 78, 2940, 52220, -3990, -564, 402, 34
819, 385, 536, 77, 7700, 74830, -8120, -555, 400, 34
820, 238, 566, 48, 6790, 68810, -8750, -555, 408, 43
821, 197, 477, 79, 4550, 54810, -8820, -568, 396, 45
822, 192, 374, 162, 2660, 41720, -9100, -555, 411, 40
823, 239, 390, 185, 1260, 26460, -9450, -564, 391, 37
824, 546, 981, -1, -1400, 16170, -7350, -550, 403, 37
825, 890, 1215, 47, -4760, 7000, -3430, -552, 405, 37
826, 1015, 1226, 123, -6580, 6650, 910, -562, 414, 31
827, 930, 1115, 158, -5950, 16100, 3850, -552, 399, 34
828, 251, 1238, 121, -2870, 28700, 4270, -558, 399, 30
829, 44, 1386, 74, -3850, 13580, 3920, -549, 393, 34
830, -18, 1308, 28, -6860, -11620, 4480, -549, 406, 37
831, 180, 944, 57, -10080, -34230, 5740, -552, 397, 40
832, 348, 566, 109, -10500, -39410, 5880, -558, 402, 33
833, 498, 526, 63, -4270, -8820, 3850, -553, 400, 27
834, 410, 799, -39, -3430, -350, 4270, -550, 399, 46
835, 444, 910, -74, -4690, -490, 5320, -568, 405, 36
836, 503, 819, -19, -6230, -490, 7420, -558, 400, 45
837, 667, 697, 166, -2870, 24010, 9030, -544, 406, 24
838, 528, 931, 147, 490, 34860, 9030, -559, 396, 28
839, 285, 1320, 22, 210, 28000, 10640, -558, 400, 37
840, 235, 1364, -43, -3570, 6020, 13440, -562, 412, 45
841, 308, 1087, 56, -7000, -13580, 15540, -556, 394, 28
842, 650, 835, 108, -4690, -4270, 14770, -571, 396, 36
843, 645, 918, 32, -3150, 8400, 13440, -559, 405, 28
844, 585, 971, 4, -3500, 13650, 13020, -561, 396, 30
845, 524, 869, 37, -4690, 13720, 12880, -555, 399, 34
846, 482, 689, 87, -5600, 13300, 12460, -559, 403, 28
847, 346, 459, 175, -5600, 14770, 10360, -564, 402, 36
848, 186, 504, 187, -4900, 9800, 9380, -558, 402, 25
849, 37, 638, 152, -5040, -4830, 8540, -559, 400, 21
850, -100, 701, 137, -7000, -29470, 8610, -573, 399, 25
851, -62, 698, 106, -9660, -73570, 8960, -559, 402, 36
852, 492, 727, 69, -9520, -82810, 9310, -561, 405, 19
853, 764, 874, 26, -9380, -83860, 11130, -571, 396, 34
854, 993, 1174, -65, -8960, -76580, 12600, -573, 400, 28
855, 1046, 1408, -96, -8890, -61250, 13930, -573, 405, 21
856, 933, 1159, 35, -2590, 1400, 10710, -571, 402, 28
857, 806, 925, 50, 700, 28840, 8120, -579, 393, 18
858, 471, 665, 40, 1820, 38780, 6510, -564, 397, 21
859, 201, 521, 36, 700, 32130, 5250, -568, 399, 25
860, 22, 476, 71, -1960, 15960, 4340, -567, 402, 30
861, 245, 496, 131, -5390, -10430, 1120, -570, 408, 15
862, 520, 729, 78, -6160, -19040, 490, -576, 409, 12
863, 694, 1003, 35, -7700, -27790, 1260, -577, 405, 16
864, 898, 992, 107, -8890, -35140, 3430, -580, 411, 18
865, 597, 623, 202, -5390, -34650, 5180, -574, 405, 12
866, 268, 698, 87, -3430, -38500, 3850, -576, 402, 22
867, 116, 855, -37, -4620, -52570, 3290, -576, 403, 19
868, 299, 918, -114, -7140, -65660, 2240, -574, 414, 18
869, 726, 993, -45, -8190, -63630, 1540, -583, 412, 9
870, 1265, 1053, 67, -630, -70, -2380, -577, 414, 18
871, 1091, 944, 80, 3710, 33600, -4410, -574, 406, 16
872, 665, 783, 50, 5670, 50330, -5670, -576, 414, 21
873, 375, 545, 21, 5180, 49770, -6720, -573, 411, 10
874, 111, 446, 55, 3500, 40880, -8610, -576, 420, 18
875, 408, 520, 141, 3080, 32830, -13230, -568, 412, 13
876, 760, 845, 151, 3150, 31010, -13510, -574, 406, 24
877, 958, 1264, 164, 3360, 26040, -11900, -573, 411, 10
878, 1150, 1521, 127, 2870, 16310, -7840, -574, 421, 19
879, 637, 904, 152, 4480, 7770, -3430, -574, 412, 28
880, 482, 565, 150, 8610, 18900, -6090, -576, 411, 25
881, 355, 531, 105, 12180, 31640, -9730, -564, 408, 28
882, 436, 583, 56, 14770, 40600, -13650, -570, 414, 28
883, 427, 809, -25, 16240, 44800, -15470, -564, 409, 18
884, 1056, 1052, -18, 18130, 61810, -13720, -559, 405, 22
885, 1339, 984, 51, 20440, 82250, -11550, -568, 400, 27
886, 1143, 915, 78, 24080, 107310, -10710, -564, 397, 36
887, 781, 908, 75, 27160, 126420, -10220, -559, 403, 31
888, 469, 844, 62, 27720, 129430, -9800, -561, 406, 37
889, 21, 639, 133, 23730, 95270, -8190, -559, 399, 36
890, 114, 572, 155, 21210, 71470, -7140, -559, 402, 49
891, 289, 568, 145, 18830, 50610, -5180, -549, 408, 45
892, 477, 551, 181, 17010, 36400, -2940, -555, 399, 45
893, 691, 860, 102, 14490, 25480, 2730, -562, 397, 42
894, 812, 1248, 7, 12810, 26110, 4900, -552, 397, 46
895, 1082, 1472, -35, 11690, 36540, 6020, -559, 408, 42
896, 1156, 1356, 8, 12320, 59150, 5530, -561, 396, 48
897, 1065, 1168, 68, 15260, 90090, 4060, -558, 391, 52
898, 590, 775, 98, 21700, 136290, 1050, -555, 409, 51
899, 220, 590, 70, 21070, 134820, 1820, -559, 400, 48
900, -46, 419, 95, 18550, 117880, 2100, -559, 400, 54
901, -215, 301, 155, 14840, 93450, 2870, -552, 400, 52
902, -155, 201, 258, 13090, 70560, 2520, -558, 402, 43
903, 153, 983, 76, 9100, 20020, 6230, -553, 393, 54
904, 815, 1592, -39, 2800, -10850, 11970, -559, 396, 48
905, 1298, 1519, 99, -4480, -30870, 18900, -550, 394, 58
906, 1412, 1012, 308, -5320, -19320, 23170, -559, 390, 51
907, 562, 634, 200, 7280, 56070, 20930, -558, 399, 60
908, 83, 629, 53, 9100, 62930, 19250, -559, 394, 37
909, -307, 661, -40, 5600, 40250, 17850, -559, 400, 57
910, -202, 458, 45, -490, 6860, 17220, -559, 402, 52
911, 10, 120, 194, -2310, -9450, 14560, -564, 399, 60
912, 135, 160, 210, 6160, 6440, 7070, -559, 393, 60
913, -75, 549, 80, 7560, 350, 5250, -567, 403, 63
914, -146, 792, 47, 4760, -24640, 5180, -555, 408, 57
915, 89, 939, 121, 280, -56910, 7770, -561, 406, 61
916, 824, 1254, 241, -2940, -88060, 17920, -564, 396, 60
917, 1629, 1769, 200, -2660, -77280, 22400, -558, 394, 58
918, 1272, 1549, 145, 420, -49840, 23450, -565, 402, 54
919, 951, 986, 169, 6230, -11060, 20650, -567, 402, 58
920, 591, 665, 117, 13370, 26530, 15470, -568, 409, 63
921, 185, 641, 0, 18550, 44450, 7910, -577, 405, 57
922, 116, 564, 29, 17150, 33880, 5530, -567, 411, 61
923, 210, 389, 119, 17990, 31570, 2940, -573, 403, 55
924, 275, 350, 151, 21280, 40250, -210, -570, 400, 66
925, 261, 532, 89, 24990, 49210, -2730, -570, 405, 66
926, 841, 1096, 73, 19670, 24710, 3990, -571, 403, 70
927, 1280, 983, 234, 14070, 6790, 11830, -571, 405, 72
928, 1346, 778, 335, 11550, 5110, 19040, -574, 408, 64
929, 1107, 829, 268, 14070, 23590, 21840, -571, 417, 69
930, 706, 1184, 59, 16030, 52150, 18760, -574, 414, 66
931, 458, 1226, -34, 13860, 52150, 16100, -582, 415, 70
932, 611, 828, 90, 13510, 57610, 12810, -579, 406, 64
933, 736, 565, 163, 15050, 71400, 9800, -571, 405, 75
934, 732, 582, 140, 17080, 86380, 7070, -576, 402, 78
935, 645, 817, 76, 15400, 86520, 6510, -577, 420, 73
936, 487, 751, 127, 12880, 76090, 7770, -582, 408, 84
937, 512, 731, 248, 12880, 70560, 9450, -586, 420, 78
938, 698, 1145, 223, 15680, 68670, 11410, -579, 414, 79
939, 756, 1594, 61, 15750, 58380, 14770, -574, 409, 82
940, 754, 932, 177, 10150, 31010, 21280, -582, 417, 85
941, 759, 405, 258, 12040, 41300, 20370, -591, 408, 78
942, 605, 303, 238, 16240, 63770, 16800, -589, 411, 94
943, 523, 518, 153, 19110, 79870, 13300, -589, 421, 87
944, 374, 752, 73, 13090, 56700, 9380, -588, 406, 96
945, 232, 505, 126, 8330, 37870, 7350, -582, 403, 97
946, 213, 297, 167, 6720, 33040, 4340, -585, 405, 97
947, 329, 289, 171, 7980, 40110, 490, -589, 411, 96
948, 257, 564, 67, 9310, 45990, -2800, -588, 409, 97
949, 813, 1177, 109, 3500, 30590, 420, -582, 411, 93
950, 1361, 1215, 351, 350, 27790, 6440, -586, 411, 100
951, 1544, 1227, 483, 210, 36820, 13580, -586, 411, 106
952, 1480, 1218, 458, 1260, 48930, 19880, -585, 402, 96
953, 796, 1184, 229, 1750, 54530, 23170, -583, 411, 91
954, 83, 698, 163, -280, 39060, 22330, -594, 408, 96
955, 107, 428, 242, 350, 28770, 19810, -586, 397, 97
956, -124, 463, 142, 1190, 16450, 16590, -585, 402, 99
957, -35, 476, 112, 700, -140, 14770, -589, 399, 90
958, -41, 461, 105, 1610, -23380, 10290, -586, 405, 99
959, 224, 413, 150, 3080, -26320, 7980, -594, 411, 94
960, 529, 545, 153, 3010, -29470, 8820, -597, 411, 99
961, 929, 616, 261, 2030, -32760, 11340, -591, 411, 99
962, 1004, 638, 322, 70, -36750, 15750, -588, 402, 97
963, 878, 654, 322, -1120, -34300, 23380, -589, 400, 94
964, 662, 668, 241, 140, -29400, 24290, -597, 396, 93
965, 367, 759, 121, 2520, -23170, 22610, -592, 397, 100
966, 301, 870, 66, 4340, -19600, 20510, -589, 393, 102
967, 424, 948, 95, 5880, -17150, 18270, -595, 403, 99
968, 655, 798, 219, 7840, -10920, 16800, -597, 394, 105
969, 617, 728, 220, 9800, -4900, 17290, -597, 393, 99
970, 626, 818, 177, 11900, -1260, 18620, -604, 400, 100
971, 582, 1030, 112, 12880, -3220, 20580, -609, 399, 99
972, 739, 1164, 121, 13720, -3150, 24570, -601, 408, 109
973, 978, 1020, 137, 16730, 13720, 24710, -610, 397, 100
974, 998, 997, 109, 21140, 41160, 23380, -613, 400, 105
975, 1098, 998, 107, 25620, 72100, 22050, -601, 400, 109
976, 1054, 920, 113, 29400, 100940, 21070, -601, 400, 112
977, 791, 782, 81, 31920, 134050, 20650, -609, 400, 112
978, 734, 749, 72, 31360, 141540, 20650, -609, 402, 109
979, 616, 790, 40, 30450, 147210, 20300, -609, 400, 112
980, 638, 780, 72, 28350, 149310, 21210, -619, 399, 112
981, 618, 693, 143, 26460, 148680, 22890, -622, 397, 108
982, 347, 657, 177, 23100, 134960, 31220, -624, 399, 106
983, 161, 705, 108, 20720, 118930, 36470, -616, 399, 108
984, 45, 596, 92, 15890, 94850, 41580, -619, 399, 106
985, -77, 417, 89, 10080, 69580, 45570, -625, 402, 99
986, 42, 292, 178, 770, 35630, 50540, -633, 400, 112
987, 303, 412, 196, -2450, 25480, 53130, -633, 394, 115
988, 338, 581, 167, -6930, 12110, 55790, -634, 406, 112
989, 474, 619, 202, -12390, -1890, 58870, -643, 388, 114
990, 552, 603, 242, -15610, -7980, 60480, -642, 396, 108
991, 700, 600, 302, -13160, 6790, 61110, -637, 393, 103
992, 588, 724, 267, -10220, 15050, 60410, -657, 397, 102
993, 506, 885, 245, -10990, 9940, 59640, -657, 382, 103
994, 533, 1116, 210, -15050, -4340, 59500, -652, 391, 96
995, 734, 1182, 242, -19320, -16310, 59710, -661, 394, 96
996, 832, 731, 355, -21420, -14910, 60340, -661, 396, 91
997, 734, 552, 334, -19810, -7280, 59990, -660, 390, 91
998, 628, 573, 248, -18690, -4970, 59360, -664, 397, 88
999, 601, 719, 169, -19110, -11340, 58170, -670, 388, 94
1000, 682, 886, 196, -24430, -36610, 55510, -672, 390, 90
1001, 762, 788, 255, -26740, -46900, 54600, -673, 384, 88
1002, 768, 675, 258, -27370, -51310, 54180, -673, 390, 99
1003, 652, 593, 199, -27160, -52850, 53340, -681, 384, 78
1004, 564, 556, 121, -27510, -56630, 52150, -688, 385, 87
1005, 575, 598, 74, -28910, -65380, 47740, -696, 384, 93
1006, 641, 608, 127, -29750, -68390, 45570, -691, 385, 88
1007, 758, 633, 184, -30170, -72380, 45010, -688, 382, 82
1008, 855, 736, 198, -29400, -76510, 45920, -688, 387, 87
1009, 845, 850, 156, -28350, -82460, 47880, -694, 387, 84
1010, 652, 782, 44, -27510, -97370, 49560, -694, 376, 91
1011, 645, 576, 49, -26600, -98840, 48650, -700, 390, 73
1012, 686, 406, 78, -24360, -93240, 47040, -703, 384, 87
1013, 713, 385, 56, -21700, -83860, 45640, -718, 372, 84
1014, 728, 513, -16, -20090, -74690, 44940, -706, 373, 93
1015, 711, 528, -23, -21350, -76860, 45640, -714, 382, 85
1016, 686, 520, -15, -23100, -79310, 46620, -703, 375, 91
1017, 711, 519, 4, -24220, -80780, 47950, -721, 379, 96
1018, 744, 573, -3, -23660, -78120, 49280, -708, 379, 103
1019, 790, 825, -85, -21070, -71750, 53340, -717, 378, 96
1020, 911, 872, -112, -19880, -69300, 56000, -721, 375, 85
1021, 966, 793, -117, -17920, -62510, 57820, -718, 372, 91
1022, 980, 659, -118, -15190, -51310, 58800, -723, 361, 106
1023, 974, 542, -92, -11410, -35980, 58520, -724, 376, 93
1024, 826, 407, -94, -3010, -5880, 56630, -723, 363, 102
1025, 774, 364, -105, -420, 2380, 56560, -735, 370, 100
1026, 760, 327, -99, 560, 5740, 57330, -732, 367, 96
1027, 726, 326, -102, 280, 5110, 58940, -738, 358, 103
1028, 633, 393, -130, -2940, -6160, 64050, -745, 352, 97
1029, 573, 406, -123, -4830, -13300, 67200, -745, 361, 102
1030, 420, 414, -127, -6020, -18830, 71610, -739, 358, 94
1031, 389, 383, -125, -7840, -26250, 75670, -745, 364, 93
1032, 292, 450, -148, -10360, -35210, 79940, -744, 346, 99
1033, 424, 505, -205, -16730, -57820, 86380, -754, 345, 96
1034, 526, 418, -188, -18900, -67550, 89530, -759, 339, 102
1035, 524, 338, -166, -20020, -74410, 91700, -757, 333, 102
1036, 559, 299, -183, -20510, -80500, 94640, -759, 337, 97
1037, 528, 308, -198, -19670, -85400, 97510, -771, 334, 103
1038, 765, 148, -98, -12810, -80430, 102760, -769, 322, 108
1039, 840, 103, -32, -8680, -75810, 108710, -774, 319, 111
1040, 1095, 13, 30, -2590, -62090, 111510, -777, 312, 118
1041, 933, 58, 88, 4130, -42630, 112140, -784, 309, 109
1042, 653, 125, 138, 13720, -13020, 116130, -781, 307, 111
1043, 620, 118, 149, 16030, -5040, 120680, -792, 303, 103
1044, 593, 131, 143, 17920, 1540, 123340, -799, 294, 109
1045, 611, 121, 112, 18340, 5390, 128030, -792, 297, 109
1046, 615, 98, 75, 18900, 8610, 131810, -795, 280, 106
1047, 555, 22, 23, 17640, 8750, 141610, -811, 265, 100
1048, 521, 21, -4, 15680, 5040, 147140, -813, 256, 106
1049, 574, 24, -29, 13720, 700, 151620, -813, 246, 93
1050, 634, 24, -45, 11550, -3710, 157360, -823, 229, 96
1051, 1001, 20, -92, 9030, -19250, 175420, -822, 240, 100
1052, 1786, 39, -218, -840, -30310, 188650, -820, 213, 97
1053, 927, -43, -216, -5110, -37660, 199780, -828, 204, 90
1054, 728, -116, -195, -6930, -38920, 206150, -828, 195, 88
1055, 464, -65, -176, -6160, -36190, 208810, -838, 178, 81
1056, 1599, 1200, -2581, -160510, -321580, -419160, -832, 181, 123
1057, 3997, 706, -3997, -812630, -1725640, -1043840, -790, 253, 226
1058, 3997, -1623, -3046, -422730, -989940, -623490, -751, 291, 244
1059, 3997, 147, -3997, 1470, -232190, -682850, -720, 321, 279
1060, 3997, -3560, 3764, 42910, -228690, -107100, -744, 330, 246
1061, 2273, -2421, 1198, -48020, -555030, 1090180, -774, 294, 246
1062, 2435, 2253, 999, -9310, 388570, 597940, -805, 250, 211
1063, -388, -2776, -1305, 511490, 834680, 839720, -838, 187, 138
1064, 398, 2947, -2738, 25620, 887530, 711060, -855, 153, 100
1065, -2876, 1259, 1092, -193760, -103110, 109480, -856, 124, 82
1066, -1266, 886, -15, 38640, -17290, 3850, -861, 130, 91
1067, 2684, -256, -514, -40320, -7350, 42770, -849, 141, 91
1068, -1110, -13, 407, 13650, -43890, -9100, -855, 121, 88
1069, 2603, -95, -315, 20440, 58450, 62860, -858, 127, 105
1070, 2430, -1018, -833, 79870, 136920, 21770, -859, 124, 93
1071, -959, 75, 41, 64890, 87710, 7980, -864, 130, 94
1072, 740, -50, -45, -44870, -44730, 3290, -852, 130, 93
1073, 801, -644, 40, -23380, -45220, -15190, -861, 127, 99
1074, 1385, -88, -243, 16590, 34230, 11900, -853, 126, 102
1075, 1116, -223, -278, -12670, -9450, -350, -846, 126, 94
1076, 459, -418, -30, 20440, 22400, 4130, -858, 124, 96
1077, 1122, -407, -225, -29750, -36890, -5250, -853, 124, 99
1078, 912, -273, -142, 27370, 30450, 4340, -852, 130, 93
1079, 1113, -270, -324, 23030, 26250, 4410, -850, 129, 91
1080, 988, -381, -149, -23450, -28350, -4970, -849, 123, 96
1081, 919, -241, -178, 18550, 22820, 3290, -862, 120, 99
1082, 1128, -380, -249, -16870, -18690, -2730, -852, 135, 102
1083, 815, -212, -259, 18410, 22470, 3290, -849, 127, 94
1084, 837, -206, -129, 14630, 17920, 2170, -855, 130, 96
1085, 988, -328, -151, -12110, -13510, -1820, -862, 132, 99
1086, 929, -269, -244, 7350, 8190, 700, -852, 133, 102
1087, 937, -383, -209, -7350, -9380, -980, -859, 135, 90
1088, 907, -291, -200, 7000, 7630, 350, -856, 123, 93
1089, 983, -304, -237, 8120, 10080, 910, -858, 133, 99
1090, 877, -271, -151, -10150, -11270, -1120, -853, 132, 93
1091, 1034, -420, -286, 9940, 11480, 1120, -849, 124, 97
1092, 803, -213, -102, -7770, -8050, -1120, -858, 129, 102
1093, 999, -305, -216, -6790, -7350, -980, -853, 127, 100
1094, 1057, -404, -254, 2380, 2590, 210, -867, 124, 97
1095, 828, -270, -161, -700, -1050, -280, -853, 117, 88
1096, 1015, -333, -215, 140, 280, -140, -846, 127, 99
1097, 789, -180, -128, 2240, 2520, 420, -858, 127, 94
1098, 833, -241, -165, 3360, 4200, 490, -853, 138, 102
1099, 1038, -391, -233, -2730, -2730, -490, -858, 138, 100
1100, 801, -187, -144, 3780, 4690, 490, -850, 126, 91
1101, 1005, -360, -191, -4340, -4760, -630, -856, 124, 102
1102, 843, -242, -172, 3850, 4620, 420, -855, 135, 99
1103, 846, -230, -185, 6020, 7000, 700, -853, 129, 100
1104, 988, -342, -183, -6370, -7210, -910, -859, 130, 97
1105, 852, -231, -173, 6860, 8120, 910, -856, 133, 91
1106, 990, -359, -194, -7140, -7840, -1050, -855, 121, 91
1107, 882, -262, -183, -6300, -7070, -980, -850, 123, 100
1108, 882, -249, -185, 6580, 7560, 770, -858, 132, 99
1109, 943, -318, -171, -6370, -7140, -910, -855, 127, 96
1110, 914, -285, -203, 5880, 6860, 700, -861, 135, 96
1111, 942, -325, -180, -6020, -6650, -980, -853, 130, 99
1112, 915, -292, -169, -5180, -5670, -770, -858, 132, 97
1113, 931, -293, -197, 4620, 5530, 560, -858, 135, 93
1114, 917, -306, -176, -4410, -4830, -630, -861, 126, 96
1115, 942, -308, -202, 3920, 4620, 350, -858, 124, 81
1116, 900, -282, -171, -3360, -3780, -560, -852, 130, 93
1117, 901, -284, -173, -2940, -3150, -420, -855, 127, 85
1118, 956, -320, -203, 2450, 3010, 210, -864, 138, 91
1119, 897, -280, -177, -2100, -2170, -350, -850, 132, 99
1120, 949, -312, -196, 1820, 2310, 140, -856, 129, 94
1121, 893, -320, -197, 1120, 1470, 70, -856, 135, 91
1122, 897, -279, -178, -980, -910, -210, -850, 138, 102
1123, 952, -320, -195, 700, 1050, 0, -856, 130, 96
1124, 895, -272, -177, -560, -420, -140, -856, 130, 105
1125, 951, -318, -193, 350, 490, -70, -862, 129, 90
1126, 950, -320, -193, 0, 280, -70, -859, 124, 93
1127, 898, -277, -180, 70, 210, -70, -862, 129, 105
1128, 946, -315, -190, -210, -70, -70, -856, 126, 103
1129, 902, -278, -183, 210, 420, -70, -861, 129, 91
1130, 946, -317, -191, -280, -140, -140, -847, 123, 99
1131, 943, -312, -189, -350, -210, -140, -862, 130, 97
1132, 905, -279, -183, 420, 630, 0, -856, 123, 93
1133, 941, -312, -189, -490, -350, -140, -859, 121, 103
1134, 909, -285, -185, 420, 630, -70, -853, 126, 84
1135, 910, -284, -184, 420, 630, 0, -858, 135, 93
1136, 937, -309, -187, -420, -350, -140, -858, 130, 94
1137, 913, -287, -185, 490, 700, 0, -858, 120, 94
1138, 935, -307, -188, -420, -350, -70, -853, 127, 99
1139, 914, -287, -185, 420, 700, 0, -847, 129, 105
1140, 915, -290, -185, 350, 630, 0, -861, 120, 103
1141, 933, -305, -187, -350, -210, -140, -853, 133, 93
1142, 917, -290, -185, 280, 490, -70, -856, 126, 88
1143, 930, -303, -188, -350, -210, -140, -855, 126, 111
1144, 918, -291, -185, 280, 490, -70, -859, 127, 96
1145, 918, -292, -186, 210, 420, -70, -859, 132, 100
1146, 930, -303, -187, -210, -140, -140, -852, 123, 87
1147, 919, -292, -186, 210, 420, -70, -861, 138, 102
1148, 929, -301, -187, -210, -70, -70, -856, 133, 97
1149, 929, -301, -187, -210, 0, -70, -852, 130, 99
1150, 920, -293, -186, 70, 280, -70, -864, 123, 105
1151, 927, -301, -187, -140, 70, -70, -856, 129, 97
1152, 921, -294, -185, 70, 280, -70, -855, 130, 93
1153, 927, -300, -187, -140, 140, -70, -853, 129, 100
1154, 927, -299, -186, -140, 70, -70, -859, 127, 93
1155, 922, -295, -185, 70, 210, -70, -853, 135, 97
1156, 926, -299, -187, -70, 140, -70, -856, 121, 93
1157, 922, -295, -186, 0, 210, -70, -865, 133, 97
1158, 926, -299, -187, -140, 140, -70, -855, 135, 103
1159, 926, -298, -186, 0, 140, -140, -858, 129, 102
1160, 922, -295, -185, 0, 210, -70, -858, 130, 87
1161, 926, -298, -187, 0, 210, 0, -849, 127, 106
1162, 923, -296, -186, 0, 140, -70, -858, 138, 100
1163, 922, -296, -186, 0, 140, 0, -861, 129, 97
1164, 924, -299, -187, 0, 140, -70, -858, 129, 97
1165, 923, -297, -186, -70, 140, -140, -850, 130, 99
1166, 925, -298, -186, 0, 210, -70, -861, 126, 97
1167, 922, -296, -187, -70, 140, -70, -858, 129, 99
1168, 923, -296, -185, -70, 140, -70, -852, 136, 102
1169, 925, -298, -186, 70, 210, -70, -865, 123, 94
1170, 925, -297, -187, -70, 140, -70, -858, 129, 103
1171, 925, -297, -186, 0, 210, -70, -853, 124, 94
1172, 924, -297, -186, -70, 70, 0, -847, 135, 96
1173, 923, -297, -185, 0, 140, 0, -862, 138, 106
1174, 924, -297, -187, 0, 210, -70, -865, 135, 91
1175, 924, -297, -187, 0, 140, -70, -856, 132, 111
1176, 924, -297, -186, 0, 140, -70, -859, 133, 93
1177, 924, -298, -187, 0, 140, -70, -856, 129, 96
1178, 924, -297, -187, 0, 140, -70, -861, 135, 106
1179, 924, -297, -186, -70, 140, 0, -855, 126, 97
1180, 924, -297, -187, -70, 140, -70, -861, 133, 99
1181, 924, -297, -186, 0, 210, -70, -856, 129, 87
1182, 924, -297, -186, 70, 210, -70, -853, 127, 93
1183, 924, -297, -186, 0, 140, -70, -847, 127, 90
1184, 924, -297, -186, 0, 140, -70, -859, 133, 102
1185, 924, -297, -186, -70, 140, -70, -858, 132, 100
1186, 924, -297, -186, 0, 140, -70, -852, 124, 97
1187, 925, -297, -186, -70, 140, -70, -855, 123, 99
1188, 924, -297, -186, -70, 210, -140, -855, 129, 94
1189, 924, -297, -186, 0, 210, -70, -855, 135, 106
1190, 924, -297, -187, -70, 210, -70, -858, 126, 100
1191, 924, -297, -186, 0, 140, -70, -862, 123, 96
1192, 924, -297, -186, 0, 210, -70, -852, 126, 103
1193, 924, -297, -186, 0, 210, -70, -853, 132, 90
1194, 923, -297, -187, 0, 140, -70, -865, 130, 105
1195, 924, -298, -187, 0, 140, -70, -847, 121, 94
1196, 924, -297, -186, -70, 210, -70, -855, 135, 97
1197, 924, -297, -186, -70, 140, -70, -859, 141, 97
1198, 924, -297, -186, 70, 210, -70, -855, 133, 100
1199, 924, -297, -186, 0, 140, -70, -849, 123, 94
1200, 925, -297, -186, 0, 210, -70, -855, 126, 102
1201, 924, -297, -186, 0, 140, -70, -852, 127, 99
1202, 925, -296, -185, 70, 210, -70, -858, 126, 97
1203, 923, -296, -185, -70, 70, -70, -853, 132, 97
1204, 924, -298, -186, -70, 140, -70, -852, 136, 96
1205, 924, -296, -187, 0, 140, -70, -858, 127, 94
1206, 924, -296, -186, 0, 140, -70, -853, 132, 103
1207, 924, -296, -187, -70, 210, -70, -852, 127, 94
1208, 925, -298, -187, 0, 210, -70, -862, 130, 93
1209, 924, -297, -186, 0, 210, -70, -859, 121, 94
1210, 924, -296, -186, -70, 140, -70, -850, 135, 96
1211, 925, -298, -187, -70, 70, -70, -855, 132, 100
1212, 924, -296, -187, 0, 210, -70, -855, 121, 93
1213, 924, -297, -187, 0, 210, -70, -858, 126, 99
1214, 924, -297, -185, 0, 140, -70, -852, 126, 106
1215, 924, -298, -187, 0, 210, -70, -853, 132, 97
1216, 924, -297, -186, 0, 140, -70, -847, 132, 94
1217, 925, -297, -185, -70, 140, -70, -852, 126, 94
1218, 924, -297, -186, -70, 140, -70, -852, 138, 100
1219, 924, -297, -187, 0, 140, -70, -852, 120, 96
1220, 924, -297, -186, 0, 140, -70, -855, 132, 109
1221, 924, -297, -185, 0, 140, -70, -858, 120, 93
1222, 924, -299, -185, 0, 140, -70, -849, 127, 84
1223, 925, -298, -186, 0, 70, -70, -853, 129, 103
1224, 924, -297, -187, 0, 140, -70, -852, 130, 106
1225, 924, -297, -187, 0, 210, -70, -852, 123, 87
1226, 925, -298, -186, -70, 140, -70, -862, 123, 103
1227, 924, -297, -187, 0, 140, -140, -852, 120, 97
1228, 924, -296, -186, 0, 140, -70, -855, 132, 103
1229, 925, -297, -186, 0, 140, -70, -855, 130, 99
1230, 924, -298, -186, 0, 140, -70, -855, 132, 106
1231, 924, -297, -186, 0, 210, -70, -865, 133, 93
1232, 924, -297, -187, 0, 210, -70, -853, 129, 79
1233, 924, -297, -187, -70, 140, -70, -855, 133, 102
1234, 924, -297, -186, 0, 140, -70, -856, 115, 105
1235, 923, -297, -186, 0, 140, -70, -852, 138, 100
1236, 924, -298, -187, -70, 140, -70, -847, 132, 99
1237, 924, -297, -187, -70, 140, -70, -846, 130, 96
1238, 924, -297, -186, -70, 210, -140, -849, 124, 99
1239, 925, -297, -187, -70, 210, -70, -852, 141, 91
1240, 924, -297, -186, 0, 140, -70, -856, 127, 96
1241, 925, -297, -186, 0, 140, -70, -859, 135, 90
1242, 923, -296, -186, 0, 140, -70, -849, 130, 85
1243, 924, -297, -186, 0, 140, -70, -855, 123, 105
1244, 924, -296, -186, -140, 210, -140, -867, 136, 106
1245, 924, -297, -187, -70, 140, -70, -856, 130, 96
1246, 925, -297, -186, 0, 210, -70, -852, 127, 97
1247, 923, -298, -186, 0, 140, -70, -864, 129, 96
1248, 924, -298, -186, 0, 140, -70, -859, 129, 96
1249, 924, -297, -186, 0, 140, -70, -853, 136, 97
1250, 924, -297, -187, 0, 140, -70, -856, 126, 99
1251, 924, -297, -186, 0, 140, -70, -855, 117, 99
1252, 924, -297, -186, 0, 210, -70, -850, 130, 79
1253, 925, -297, -187, -70, 210, -70, -855, 132, 99
1254, 924, -297, -186, 0, 210, -70, -855, 136, 91
1255, 924, -297, -187, 0, 140, -70, -850, 130, 100
1256, 924, -297, -187, 0, 140, -70, -861, 123, 102
1257, 924, -297, -186, -70, 210, -70, -859, 130, 102
1258, 924, -297, -186, 70, 140, -70, -853, 129, 108
1259, 924, -297, -186, -70, 140, -70, -856, 130, 102
1260, 924, -297, -186, -70, 140, -70, -847, 123, 91
1261, 923, -297, -186, 0, 210, -70, -861, 133, 99
1262, 924, -297, -187, -70, 210, -70, -858, 120, 100
1263, 924, -297, -187, 0, 210, -70, -847, 124, 106
1264, 925, -297, -186, 0, 140, -70, -849, 132, 106
1265, 924, -297, -187, 0, 210, -70, -864, 132, 93
1266, 924, -297, -186, 0, 210, -70, -855, 123, 87
1267, 924, -297, -185, -70, 140, -70, -852, 127, 94
1268, 924, -297, -186, 0, 210, -70, -850, 130, 99
1269, 924, -297, -186, -70, 140, -70, -858, 127, 108
1270, 925, -297, -186, 0, 140, 0, -852, 126, 105
1271, 925, -297, -186, -70, 140, -70, -852, 135, 88
1272, 924, -297, -186, 0, 210, -140, -847, 124, 96
1273, 924, -298, -186, 0, 70, -70, -864, 127, 97
1274, 924, -297, -187, -70, 140, -140, -859, 121, 93
1275, 923, -297, -186, 0, 140, -70, -852, 124, 99
1276, 924, -296, -186, 0, 70, -70, -858, 133, 93
1277, 924, -297, -186, 0, 140, -70, -867, 126, 96
1278, 924, -297, -186, 0, 210, -70, -849, 130, 102
1279, 924, -297, -186, 0, 210, -70, -859, 127, 96
1280, 925, -297, -186, 0, 210, -70, -849, 135, 103
1281, 925, -297, -186, 0, 140, -70, -855, 130, 99
1282, 924, -297, -187, -70, 210, -70, -858, 132, 100
1283, 924, -297, -186, 0, 140, -70, -853, 124, 97
1284, 924, -297, -186, 0, 210, -70, -856, 129, 102
1285, 925, -297, -187, 0, 210, -70, -856, 135, 84
1286, 925, -297, -187, 0, 140, -70, -853, 136, 100
1287, 924, -297, -186, 0, 140, -70, -858, 117, 93
1288, 924, -297, -186, 0, 210, -70, -862, 129, 99
1289, 924, -297, -186, 70, 140, -70, -849, 126, 96
1290, 924, -298, -187, 0, 210, -70, -858, 130, 100
1291, 924, -297, -185, 0, 140, -140, -850, 123, 100
1292, 924, -297, -187, 0, 140, -70, -855, 135, 99
1293, 925, -297, -186, 0, 140, -70, -849, 123, 97
1294, 924, -297, -186, 0, 210, -70, -849, 130, 100
1295, 925, -298, -186, 0, 140, -70, -849, 129, 99
1296, 924, -297, -186, 70, 210, -70, -859, 135, 96
1297, 925, -297, -186, 70, 140, -140, -853, 129, 90
1298, 924, -297, -186, 0, 140, -70, -859, 130, 100
1299, 924, -297, -186, 0, 140, -70, -864, 129, 97
1300, 924, -297, -185, -70, 140, -70, -862, 127, 103
1301, 925, -298, -186, 0, 140, -140, -859, 133, 94
1302, 924, -296, -188, 0, 140, -70, -856, 127, 94
1303, 924, -298, -186, 0, 140, -70, -852, 126, 93
1304, 924, -297, -185, 70, 140, -70, -861, 123, 103
1305, 924, -297, -185, 0, 70, -70, -859, 129, 102
1306, 924, -297, -186, -70, 210, -70, -864, 138, 97
1307, 924, -297, -187, 0, 140, -70, -856, 124, 85
1308, 924, -298, -186, 0, 210, 0, -864, 126, 111
1309, 924, -297, -186, 0, 210, -70, -861, 124, 94
1310, 924, -297, -187, 0, 140, -70, -855, 133, 103
1311, 924, -297, -186, 0, 210, -140, -846, 130, 90
1312, 924, -297, -186, 0, 140, -70, -861, 129, 91
1313, 924, -298, -188, -70, 140, -70, -856, 132, 99
1314, 924, -297, -187, 0, 210, -70, -856, 124, 94
1315, 924, -296, -186, 0, 140, -70, -858, 136, 91
1316, 925, -296, -187, 0, 140, -70, -856, 130, 105
1317, 924, -297, -187, 0, 140, -70, -852, 130, 97
1318, 924, -297, -186, 0, 70, -70, -864, 133, 97
1319, 925, -297, -187, -70, 210, -70, -850, 126, 88
1320, 925, -297, -186, -70, 140, -70, -855, 136, 103
1321, 924, -297, -186, -70, 210, -70, -856, 130, 93
1322, 923, -297, -186, 0, 140, -70, -855, 127, 100
1323, 924, -298, -187, 0, 140, -70, -855, 129, 103
1324, 926, -298, -188, -70, 70, -70, -856, 126, 106
1325, 925, -298, -186, 70, 280, -70, -853, 124, 96
1326, 924, -297, -186, 0, 140, -70, -862, 127, 100
1327, 925, -297, -186, 0, 70, -140, -852, 115, 88
1328, 924, -297, -186, 70, 140, -70, -849, 126, 103
1329, 923, -296, -185, 0, 140, -70, -849, 132, 103
1330, 924, -298, -186, -70, 140, -140, -847, 132, 102
1331, 925, -297, -187, -70, 140, -70, -853, 130, 91
1332, 924, -296, -186, 0, 140, -70, -861, 130, 91
1333, 923, -297, -186, 0, 280, -70, -853, 118, 105
1334, 925, -297, -186, 0, 140, -70, -850, 126, 96
1335, 924, -297, -186, 0, 70, -70, -861, 129, 96
1336, 924, -297, -186, -70, 140, -70, -858, 129, 91
1337, 925, -296, -187, 0, 210, -70, -853, 124, 99
1338, 923, -297, -186, -70, 210, -140, -858, 127, 97
1339, 924, -298, -186, 0, 140, -70, -858, 124, 99
1340, 924, -297, -185, -70, 140, -70, -856, 129, 81
1341, 925, -297, -186, 0, 140, -70, -859, 126, 96
1342, 925, -298, -186, 0, 140, -70, -855, 133, 106
1343, 924, -297, -187, -70, 140, -70, -853, 135, 97
1344, 924, -297, -186, 0, 140, -70, -846, 127, 105
1345, 924, -298, -185, 0, 210, -70, -852, 129, 96
1346, 924, -297, -187, 0, 210, -70, -855, 135, 99
1347, 923, -297, -185, -70, 210, -70, -853, 127, 97
1348, 924, -297, -186, 0, 140, -70, -852, 135, 103
1349, 924, -298, -185, 70, 210, -70, -850, 127, 102
1350, 924, -296, -186, 0, 210, -70, -855, 114, 87
1351, 924, -297, -186, 0, 140, -70, -856, 129, 105
1352, 924, -297, -186, 0, 70, -70, -850, 135, 94
1353, 924, -297, -187, -70, 140, -70, -850, 127, 103
1354, 924, -297, -186, 70, 210, -70, -850, 126, 105
1355, 924, -297, -186, -70, 140, -70, -864, 135, 102
1356, 925, -297, -186, 0, 140, -70, -849, 129, 96
1357, 924, -297, -185, -70, 210, -70, -850, 132, 85
1358, 924, -297, -186, -70, 140, -70, -849, 135, 108
1359, 924, -297, -186, -140, 140, -70, -853, 133, 103
1360, 924, -297, -186, 0, 140, -70, -861, 121, 87
1361, 924, -297, -186, 0, 140, -70, -853, 127, 96
1362, 925, -297, -185, -70, 210, -70, -856, 130, 99
1363, 924, -297, -186, 0, 140, -70, -855, 126, 91
1364, 924, -298, -187, 0, 210, -70, -855, 130, 93
1365, 924, -297, -187, -70, 140, -70, -850, 132, 96
1366, 924, -297, -186, 0, 140, -70, -850, 127, 91
1367, 924, -297, -186, 0, 140, -140, -847, 124, 93
1368, 924, -298, -187, 0, 210, -140, -850, 124, 103
1369, 924, -298, -186, 0, 70, -140, -858, 124, 94
1370, 924, -297, -186, -140, 210, -70, -856, 130, 90
1371, 924, -297, -186, -70, 140, -70, -855, 126, 99
1372, 924, -297, -186, 0, 210, -140, -844, 130, 97
1373, 923, -297, -185, 0, 210, -70, -853, 135, 97
1374, 924, -297, -186, 0, 140, -70, -846, 132, 91
1375, 924, -297, -185, 70, 140, -140, -850, 133, 96
1376, 924, -297, -186, -70, 140, -70, -855, 126, 102
1377, 924, -297, -186, 0, 140, -70, -853, 135, 100
1378, 925, -297, -186, 0, 210, -70, -853, 126, 100
1379, 924, -297, -186, 0, 70, -70, -862, 129, 96
1380, 924, -298, -185, -70, 140, -70, -856, 126, 88
1381, 923, -297, -186, -70, 140, -70, -856, 136, 102
1382, 925, -298, -186, 70, 210, -70, -861, 129, 100
1383, 925, -297, -187, 0, 140, -70, -858, 139, 106
1384, 924, -297, -186, -70, 140, -70, -853, 135, 99
1385, 925, -297, -186, 0, 140, -70, -855, 138, 93
1386, 924, -297, -186, 0, 140, -70, -855, 135, 106
1387, 925, -296, -185, 0, 210, -70, -852, 132, 93
1388, 924, -297, -186, 0, 140, -70, -849, 136, 96
1389, 924, -298, -186, -70, 210, -70, -850, 135, 99
1390, 923, -297, -187, 0, 140, -70, -858, 130, 102
1391, 924, -296, -186, 0, 210, -70, -847, 126, 100
1392, 924, -297, -186, 0, 140, -70, -853, 127, 91
1393, 924, -297, -186, 0, 140, -70, -852, 130, 97
1394, 924, -297, -186, 0, 140, -70, -847, 133, 97
1395, 925, -297, -186, -70, 210, -70, -859, 124, 90
1396, 925, -298, -186, 0, 140, -70, -853, 132, 102
1397, 925, -298, -185, -70, 140, -70, -856, 132, 105
1398, 924, -297, -186, -70, 70, -70, -855, 133, 102
1399, 924, -297, -186, 0, 140, -70, -853, 130, 103
1400, 924, -297, -186, 0, 140, -70, -852, 130, 102
1401, 924, -298, -185, 0, 140, -70, -853, 127, 102
1402, 922, -297, -186, 70, 280, -70, -858, 127, 94
1403, 926, -296, -188, -70, 70, -70, -858, 126, 99
1404, 926, -298, -187, -70, 140, -70, -861, 136, 103
1405, 924, -296, -185, 0, 140, 0, -853, 129, 106
1406, 925, -297, -187, -70, 210, -70, -859, 126, 102
1407, 923, -299, -186, 0, 140, -140, -850, 127, 94
1408, 925, -298, -185, 0, 140, -140, -861, 135, 103
1409, 924, -296, -187, 0, 140, -70, -859, 126, 106
1410, 926, -299, -186, -70, 210, -70, -862, 133, 102
1411, 924, -296, -187, 0, 210, -70, -855, 117, 96
1412, 924, -296, -186, 0, 210, -70, -849, 129, 102
1413, 925, -297, -186, -140, 210, -70, -852, 133, 97
1414, 925, -298, -186, 0, 210, -70, -856, 139, 102
1415, 924, -297, -186, -70, 140, -70, -861, 132, 97
1416, 924, -297, -186, -70, 210, -70, -852, 132, 103
1417, 925, -297, -187, 0, 140, -70, -856, 121, 87
1418, 924, -297, -186, 70, 140, -70, -853, 138, 99
1419, 924, -298, -186, 0, 140, -70, -855, 130, 93
1420, 924, -297, -187, 0, 210, -70, -850, 129, 91
1421, 924, -298, -187, 0, 140, -70, -858, 127, 102
1422, 924, -297, -186, -70, 140, -70, -846, 135, 102
1423, 925, -297, -187, 0, 280, -70, -858, 135, 97
1424, 924, -297, -186, -140, 140, -70, -858, 141, 93
1425, 924, -297, -185, -70, 140, -140, -853, 129, 96
1426, 924, -297, -185, 0, 210, -70, -847, 132, 100
1427, 925, -297, -186, -70, 210, -70, -861, 133, 100
1428, 924, -297, -185, -70, 140, -70, -856, 127, 106
1429, 925, -297, -187, -70, 140, -70, -852, 127, 100
1430, 924, -297, -186, 0, 140, -70, -856, 133, 103
1431, 924, -297, -185, -70, 140, -70, -856, 123, 100
1432, 924, -297, -186, 0, 140, 0, -850, 132, 111
1433, 924, -297, -186, 0, 210, -70, -852, 129, 99
1434, 925, -297, -187, 0, 140, 0, -859, 127, 97
1435, 924, -297, -186, 70, 210, -70, -850, 130, 94
1436, 924, -298, -186, 0, 210, -70, -862, 130, 96
1437, 924, -297, -185, 0, 140, -70, -852, 126, 94
1438, 924, -297, -186, -70, 140, -70, -858, 129, 105
1439, 924, -298, -187, 0, 140, -70, -859, 133, 100
1440, 924, -297, -187, 0, 210, -70, -858, 127, 103
1441, 924, -297, -186, 0, 140, -70, -841, 126, 99
1442, 924, -297, -186, -70, 140, -70, -852, 133, 105
1443, 924, -297, -186, 70, 140, -70, -859, 129, 96
1444, 924, -298, -186, 0, 140, -70, -867, 121, 100
1445, 924, -298, -187, 0, 140, -70, -852, 127, 96
1446, 925, -298, -186, 0, 140, -70, -855, 127, 106
1447, 924, -297, -186, 0, 210, -140, -852, 127, 99
1448, 924, -297, -185, -70, 140, -70, -856, 117, 93
1449, 925, -297, -186, 0, 280, -70, -858, 126, 96
1450, 923, -297, -186, -70, 140, -70, -861, 133, 105
1451, 924, -297, -187, 0, 140, -70, -852, 126, 97
1452, 925, -297, -187, 0, 210, -70, -856, 127, 100
1453, 925, -297, -187, -70, 210, -70, -852, 132, 97
1454, 925, -297, -186, -70, 210, -70, -858, 123, 99
1455, 922, -296, -185, 0, 140, -70, -853, 132, 97
1456, 925, -298, -186, -70, 210, -70, -862, 129, 91
1457, 924, -298, -186, 0, 70, -70, -853, 127, 94
1458, 924, -297, -185, 0, 140, -70, -843, 123, 90
1459, 924, -297, -187, -70, 140, -70, -858, 130, 99
1460, 924, -298, -187, 0, 140, -70, -850, 126, 99
1461, 924, -297, -186, 0, 140, -140, -847, 130, 100
1462, 924, -297, -186, -70, 210, -70, -862, 135, 96
1463, 925, -297, -187, 0, 210, -70, -861, 123, 90
1464, 924, -297, -187, 0, 210, 0, -855, 129, 99
1465, 924, -296, -188, 0, 70, -70, -850, 130, 99
1466, 925, -297, -186, 0, 280, -70, -846, 129, 97
1467, 923, -297, -186, -70, 140, -70, -852, 132, 108
1468, 924, -297, -186, 0, 140, -70, -846, 135, 85
1469, 924, -297, -186, 0, 210, -70, -852, 133, 103
1470, 924, -297, -187, 0, 140, -140, -849, 120, 100
1471, 924, -297, -186, -70, 210, -70, -856, 123, 99
1472, 924, -297, -187, -70, 140, -140, -853, 132, 96
1473, 925, -297, -186, 0, 140, -70, -858, 124, 103
1474, 924, -297, -186, 70, 140, -70, -852, 121, 103
1475, 924, -297, -186, 0, 140, -70, -850, 138, 91
1476, 924, -297, -185, -70, 140, -70, -852, 126, 102
1477, 924, -297, -186, 0, 70, -70, -856, 126, 102
1478, 925, -297, -186, 0, 140, -70, -859, 127, 97
1479, 924, -298, -186, 0, 140, -70, -856, 124, 99
1480, 925, -297, -185, 0, 210, -140, -852, 121, 109
1481, 924, -297, -186, 0, 210, -70, -853, 136, 102
1482, 924, -297, -186, 0, 140, -70, -850, 129, 103
1483, 925, -297, -186, 0, 210, -70, -850, 129, 100
1484, 925, -297, -185, 0, 140, -70, -850, 127, 99
1485, 925, -297, -186, 0, 140, -70, -859, 136, 103
1486, 924, -297, -186, 0, 210, -70, -859, 118, 93
1487, 925, -297, -186, -70, 140, -70, -849, 130, 96
1488, 924, -297, -186, 0, 140, -70, -849, 129, 87
1489, 925, -297, -187, 0, 140, -140, -856, 126, 91
1490, 924, -297, -187, 0, 140, -70, -856, 126, 94
1491, 924, -298, -187, 0, 140, -70, -856, 127, 108
1492, 924, -297, -186, -70, 140, -70, -849, 129, 102
1493, 925, -297, -186, -70, 210, -70, -861, 130, 100
1494, 924, -297, -186, 0, 140, -70, -856, 136, 94
1495, 924, -297, -186, 70, 140, -140, -855, 133, 100
1496, 924, -297, -186, 70, 210, -70, -859, 127, 109
1497, 924, -297, -185, -70, 210, -70, -850, 130, 94
1498, 924, -298, -186, 0, 140, -70, -859, 132, 99
1499, 924, -298, -186, 0, 210, -70, -859, 136, 112
1500, 924, -296, -187, -70, 210, -70, -861, 132, 97
1501, 924, -296, -186, 0, 140, -70, -855, 129, 105
1502, 925, -297, -186, 0, 140, -70, -853, 123, 100
1503, 925, -297, -185, 0, 140, -70, -853, 130, 106
1504, 925, -297, -186, 0, 70, -70, -846, 127, 102
1505, 924, -297, -186, 0, 140, -70, -864, 136, 100
1506, 925, -297, -186, -70, 140, -70, -852, 124, 96
1507, 925, -297, -187, -70, 210, -70, -855, 126, 100
1508, 924, -297, -186, 0, 140, -70, -849, 124, 103
1509, 924, -297, -186, -70, 140, -70, -858, 129, 99
1510, 924, -298, -187, -70, 210, -70, -849, 127, 102
1511, 924, -297, -186, -70, 140, -70, -849, 135, 88
1512, 925, -297, -185, -70, 140, -70, -855, 129, 97
1513, 924, -297, -187, 0, 210, -70, -853, 130, 87
1514, 924, -297, -186, 0, 140, -70, -862, 124, 106
1515, 925, -297, -187, -70, 210, -70, -850, 132, 93
1516, 924, -296, -186, 70, 140, -140, -850, 129, 103
1517, 925, -297, -186, 70, 140, -70, -852, 124, 99
1518, 925, -298, -186, 0, 140, -70, -858, 132, 99
1519, 924, -297, -187, -70, 140, -140, -850, 123, 96
1520, 924, -297, -186, 0, 140, -70, -844, 139, 99
1521, 924, -297, -186, 0, 140, -70, -859, 130, 99
1522, 924, -297, -186, -70, 210, -140, -853, 133, 100
1523, 924, -297, -186, -70, 140, -140, -852, 127, 97
1524, 924, -297, -186, -70, 140, -70, -850, 135, 91
1525, 924, -298, -185, -70, 210, -70, -862, 130, 102
1526, 925, -297, -186, 0, 210, -70, -858, 129, 103
1527, 924, -297, -185, -70, 140, -140, -856, 130, 100
1528, 924, -298, -186, 0, 140, -70, -853, 135, 96
1529, 923, -298, -186, 0, 140, -70, -858, 132, 99
1530, 923, -297, -187, -70, 140, -70, -855, 132, 93
1531, 924, -297, -186, -70, 140, -70, -864, 123, 91
1532, 924, -298, -186, 0, 140, -70, -847, 135, 102
1533, 924, -297, -187, 0, 210, -70, -852, 132, 94
1534, 924, -297, -186, 0, 210, -70, -852, 130, 94
1535, 924, -297, -186, 0, 140, -140, -850, 126, 99
1536, 924, -297, -185, 0, 210, -70, -852, 133, 102
1537, 924, -297, -185, 0, 140, -140, -859, 138, 100
1538, 924, -297, -186, -70, 140, -70, -855, 130, 97
1539, 923, -297, -186, 0, 140, -70, -852, 133, 106
1540, 924, -297, -186, 70, 210, -70, -856, 129, 106
1541, 924, -296, -187, 0, 70, -70, -850, 129, 94
1542, 925, -297, -186, 0, 140, -70, -841, 129, 106
1543, 926, -297, -187, 0, 210, -70, -855, 124, 99
1544, 925, -297, -186, 0, 140, -70, -850, 130, 99
1545, 924, -297, -186, 0, 140, -70, -856, 135, 94
1546, 925, -298, -186, 0, 210, -70, -855, 135, 111
1547, 924, -297, -187, 70, 210, -70, -858, 135, 102
1548, 924, -296, -187, 70, 210, -70, -853, 123, 105
1549, 924, -297, -186, 0, 210, -140, -856, 121, 103
1550, 923, -297, -186, 0, 140, -70, -852, 130, 97
1551, 924, -297, -186, 0, 210, -70, -855, 130, 97
1552, 924, -296, -186, 70, 140, -70, -853, 126, 97
1553, 926, -297, -186, -70, 140, -70, -852, 130, 94
1554, 924, -296, -186, 0, 210, -70, -859, 130, 103
1555, 925, -296, -186, -70, 140, -70, -855, 121, 93
1556, 923, -297, -186, 0, 140, -70, -847, 126, 99
1557, 924, -298, -185, -70, 140, -70, -862, 129, 94
1558, 925, -297, -187, 0, 140, -70, -862, 132, 99
1559, 923, -297, -186, 0, 140, -70, -852, 130, 106
1560, 924, -298, -186, 0, 210, -70, -855, 129, 96
1561, 924, -297, -187, 0, 140, 0, -852, 132, 93
1562, 924, -297, -187, 0, 70, -70, -852, 133, 99
1563, 925, -297, -185, 0, 210, -70, -850, 130, 103
1564, 924, -297, -187, -70, 210, -70, -849, 130, 100
1565, 924, -297, -187, -70, 140, -70, -859, 126, 100
1566, 924, -298, -186, -70, 140, -70, -856, 123, 91
1567, 925, -296, -186, 0, 140, -70, -855, 127, 94
1568, 924, -298, -187, 0, 210, -70, -855, 126, 96
1569, 924, -297, -186, 0, 140, -70, -856, 126, 96
1570, 924, -297, -185, 0, 70, -70, -841, 138, 99
1571, 924, -297, -186, -70, 140, -70, -853, 130, 93
1572, 923, -296, -186, 0, 140, -70, -852, 142, 105
1573, 924, -298, -187, 0, 140, -140, -859, 132, 102
1574, 925, -297, -187, 0, 140, -70, -852, 132, 102
1575, 924, -297, -187, 0, 140, -70, -849, 129, 96
1576, 925, -297, -187, 0, 210, -70, -852, 123, 81
1577, 925, -297, -186, 0, 210, -70, -858, 133, 96
1578, 924, -296, -185, -70, 140, -70, -855, 138, 96
1579, 925, -297, -186, 0, 140, -70, -855, 133, 88
1580, 925, -297, -187, 0, 140, -70, -852, 123, 99
1581, 924, -297, -187, 0, 140, -70, -855, 129, 99
1582, 925, -297, -185, 0, 140, -70, -852, 132, 96
1583, 925, -297, -186, -70, 140, -70, -847, 130, 99
1584, 924, -297, -186, 0, 140, -70, -855, 118, 97
1585, 925, -297, -186, 70, 140, -70, -858, 126, 94
1586, 924, -297, -186, 0, 140, -70, -859, 124, 79
1587, 924, -297, -186, 0, 140, -70, -856, 130, 106
1588, 924, -297, -186, 70, 140, -70, -850, 127, 103
1589, 924, -298, -186, 70, 140, -70, -856, 126, 94
1590, 924, -297, -186, 0, 210, -70, -852, 136, 106
1591, 924, -297, -187, 0, 210, -70, -850, 121, 93
1592, 924, -297, -186, 0, 140, -70, -855, 132, 103
1593, 924, -297, -186, -70, 210, -70, -861, 126, 102
1594, 924, -298, -186, 0, 70, -70, -855, 121, 93
1595, 924, -297, -186, -70, 140, -70, -844, 121, 97
1596, 924, -297, -187, 0, 140, -70, -852, 132, 88
1597, 924, -297, -185, 0, 140, -70, -852, 139, 105
1598, 925, -297, -187, -70, 140, -70, -852, 120, 99
1599, 925, -297, -186, -70, 140, -70, -855, 135, 99
1600, 924, -297, -186, 70, 140, -70, -847, 132, 105
1601, 924, -297, -185, 0, 140, -70, -861, 139, 94
1602, 925, -297, -186, 0, 210, -70, -861, 130, 99
1603, 924, -297, -186, 0, 210, -70, -850, 133, 99
1604, 924, -297, -187, 0, 210, -70, -855, 123, 97
1605, 924, -297, -186, -70, 140, -70, -867, 126, 105
1606, 924, -297, -186, 0, 140, -70, -849, 130, 94
1607, 924, -296, -186, -70, 70, -140, -855, 136, 103
1608, 925, -297, -186, 70, 70, -70, -847, 126, 93
1609, 924, -297, -186, -70, 140, -140, -855, 141, 91
1610, 925, -297, -186, 0, 140, -140, -861, 135, 96
1611, 925, -298, -186, 0, 140, -70, -849, 132, 100
1612, 924, -297, -187, -70, 140, -70, -855, 130, 97
1613, 924, -297, -187, 0, 140, -70, -843, 132, 94
1614, 924, -296, -186, 0, 210, -70, -858, 130, 94
1615, 924, -297, -186, -70, 140, -70, -856, 135, 100
1616, 924, -297, -186, 0, 140, -70, -847, 133, 100
1617, 924, -297, -185, 70, 140, -70, -850, 127, 105
1618, 924, -296, -186, 0, 140, -70, -859, 127, 96
1619, 924, -297, -186, 0, 140, -70, -858, 130, 96
1620, 925, -298, -186, -140, 140, -70, -850, 126, 97
1621, 925, -298, -187, -70, 210, -70, -856, 130, 97
1622, 924, -297, -186, -70, 140, -70, -861, 121, 105
1623, 925, -298, -186, 0, 210, -70, -853, 124, 105
1624, 924, -297, -186, -70, 210, -70, -855, 127, 102
1625, 924, -297, -186, -70, 210, -140, -870, 133, 96
1626, 923, -297, -186, -70, 140, -70, -855, 129, 93
1627, 924, -297, -186, -70, 140, -70, -852, 126, 96
1628, 924, -297, -185, 0, 210, -70, -855, 123, 96
1629, 924, -298, -187, 0, 210, -70, -853, 124, 102
1630, 924, -297, -187, 0, 140, -70, -855, 130, 87
1631, 924, -298, -187, 0, 140, -70, -850, 127, 102
1632, 924, -297, -187, -70, 210, -70, -849, 132, 99
1633, 924, -297, -186, 0, 210, -70, -856, 129, 100
1634, 924, -297, -186, 0, 210, -70, -861, 124, 97
1635, 924, -297, -186, 0, 70, -70, -852, 130, 99
1636, 925, -297, -187, 0, 140, -70, -856, 130, 99
1637, 923, -298, -187, 0, 210, -70, -856, 123, 97
1638, 924, -297, -186, -70, 140, -70, -858, 129, 103
1639, 924, -298, -186, 0, 140, -70, -846, 127, 96
1640, 924, -297, -186, 0, 140, -70, -858, 133, 102
1641, 924, -297, -186, 0, 70, -70, -847, 124, 106
1642, 924, -296, -186, 0, 280, -70, -846, 135, 97
1643, 924, -297, -186, -70, 210, -70, -853, 127, 94
1644, 924, -297, -186, 0, 140, -70, -862, 129, 103
1645, 924, -297, -186, 70, 140, -70, -861, 123, 99
1646, 924, -298, -187, 0, 140, -70, -864, 136, 97
1647, 924, -297, -186, 70, 140, -70, -846, 127, 94
1648, 924, -298, -186, 0, 140, -70, -855, 132, 99
1649, 924, -297, -186, 0, 140, -70, -850, 127, 99
1650, 925, -297, -186, 0, 140, -70, -853, 126, 99
1651, 924, -297, -185, 0, 70, -70, -856, 130, 99
1652, 923, -297, -186, 0, 140, -70, -853, 127, 102
1653, 924, -297, -187, 0, 210, -70, -856, 126, 102
1654, 924, -298, -186, -70, 140, -70, -847, 132, 109
1655, 924, -297, -185, -70, 140, -70, -852, 114, 94
1656, 924, -297, -186, 0, 140, -70, -850, 127, 102
1657, 925, -298, -186, -70, 140, -70, -844, 115, 97
1658, 924, -297, -186, -70, 210, -140, -853, 127, 100
1659, 924, -297, -187, -70, 140, -70, -855, 126, 91
1660, 924, -298, -186, -70, 70, -70, -852, 129, 109
1661, 924, -298, -186, -70, 140, -70, -858, 120, 102
1662, 925, -297, -185, 70, 140, -70, -853, 127, 96
1663, 924, -297, -186, 0, 210, -70, -864, 130, 99
1664, 923, -297, -186, 0, 210, -70, -850, 124, 94
1665, 924, -297, -186, -70, 210, -70, -859, 124, 94
1666, 925, -297, -186, 0, 140, -70, -864, 126, 103
1667, 924, -297, -186, 0, 210, -70, -852, 124, 97
1668, 924, -296, -185, -70, 210, -70, -850, 127, 99
1669, 924, -297, -186, 0, 140, -70, -855, 124, 100
1670, 924, -297, -186, 0, 140, -70, -850, 133, 108
1671, 924, -298, -185, 0, 210, -70, -858, 121, 100
1672, 923, -297, -186, 0, 140, -70, -856, 126, 94
1673, 923, -296, -186, 0, 70, -70, -850, 133, 99
1674, 926, -297, -186, 0, 140, -70, -849, 121, 102
1675, 919, -295, -185, 70, 280, -70, -852, 132, 97
1676, 926, -297, -187, -210, 70, -140, -846, 127, 106
1677, 925, -299, -187, 70, 280, -70, -850, 126, 103
1678, 923, -298, -185, -70, 140, -70, -850, 136, 97
1679, 925, -296, -185, 70, 210, -70, -853, 120, 109
1680, 923, -298, -186, 0, 140, -70, -849, 129, 102
1681, 925, -297, -186, -70, 140, -70, -855, 124, 96
1682, 924, -296, -186, -70, 210, -70, -847, 133, 105
1683, 924, -297, -186, -70, 140, -70, -852, 129, 96
1684, 926, -298, -185, 0, 210, -70, -855, 126, 102
1685, 923, -297, -187, 0, 140, -70, -855, 129, 96
1686, 925, -297, -186, 0, 140, -70, -844, 132, 106
1687, 924, -297, -186, -70, 140, -70, -853, 127, 100
1688, 923, -297, -187, -70, 140, -140, -850, 123, 93
1689, 924, -297, -186, -70, 210, -140, -856, 126, 97
1690, 924, -298, -187, 0, 140, -70, -859, 132, 100
1691, 924, -297, -187, 70, 140, -140, -853, 130, 99
1692, 924, -297, -186, 0, 210, -70, -855, 124, 100
1693, 925, -297, -187, -70, 210, -70, -861, 127, 103
1694, 924, -297, -186, -70, 140, -70, -847, 121, 94
1695, 924, -297, -187, -70, 140, -140, -859, 130, 108
1696, 924, -297, -185, -70, 210, -70, -855, 117, 103
1697, 923, -297, -187, -70, 210, -70, -855, 127, 102
1698, 924, -297, -186, 0, 210, -70, -853, 127, 97
1699, 924, -297, -186, 0, 140, -70, -861, 132, 99
1700, 923, -296, -186, 0, 140, -70, -853, 130, 99
1701, 924, -298, -186, 0, 210, -70, -858, 126, 103
1702, 924, -298, -186, 70, 140, -70, -856, 126, 99
1703, 924, -297, -187, -70, 210, -70, -852, 121, 87
1704, 924, -297, -186, -70, 70, -70, -841, 130, 100
1705, 924, -297, -187, -70, 140, -140, -850, 132, 99
1706, 924, -297, -187, 0, 140, -70, -850, 129, 96
1707, 924, -297, -186, 0, 140, -70, -846, 126, 94
1708, 925, -297, -186, 0, 210, -70, -853, 124, 106
1709, 924, -297, -186, -70, 140, -70, -858, 130, 99
1710, 924, -297, -186, 0, 70, -70, -856, 127, 114
1711, 925, -297, -185, 0, 210, -70, -862, 136, 105
1712, 924, -299, -186, 0, 210, -70, -853, 121, 102
1713, 924, -297, -186, 0, 70, -70, -861, 133, 94
1714, 924, -297, -187, -70, 140, -140, -850, 126, 100
1715, 925, -297, -187, -70, 210, -140, -858, 127, 106
1716, 925, -297, -186, 0, 140, -140, -856, 124, 108
1717, 924, -297, -186, 0, 140, -70, -862, 136, 105
1718, 924, -297, -186, -70, 210, -70, -852, 127, 97
1719, 925, -297, -186, -70, 140, -70, -843, 126, 96
1720, 924, -298, -186, 0, 140, -70, -850, 126, 102
1721, 923, -297, -186, 0, 70, -70, -855, 127, 105
1722, 924, -297, -186, 0, 140, -70, -856, 133, 105
1723, 924, -297, -186, -70, 210, 0, -852, 129, 97
1724, 925, -297, -186, -70, 140, -70, -846, 121, 102
1725, 925, -297, -186, 0, 140, -70, -847, 127, 105
1726, 924, -296, -185, -70, 210, -70, -853, 139, 94
1727, 923, -297, -186, 0, 140, -70, -862, 139, 102
1728, 924, -298, -186, 0, 140, -70, -861, 130, 90
1729, 924, -297, -186, 0, 70, -70, -843, 135, 100
1730, 924, -297, -186, 0, 140, -70, -855, 133, 105
1731, 924, -297, -186, 0, 210, -70, -852, 127, 99
1732, 924, -297, -185, -70, 70, -70, -855, 130, 102
1733, 925, -297, -187, -70, 140, -70, -859, 127, 97
1734, 924, -297, -186, 0, 140, -70, -856, 126, 100
1735, 925, -297, -185, -70, 140, -70, -852, 124, 97
1736, 924, -297, -185, -70, 140, -70, -855, 127, 105
1737, 924, -296, -186, 0, 210, -70, -862, 130, 102
1738, 924, -297, -186, 0, 210, -140, -853, 127, 100
1739, 924, -298, -187, -70, 140, 0, -861, 132, 102
1740, 925, -297, -186, -70, 140, -70, -849, 130, 96
1741, 923, -297, -186, 0, 140, -70, -847, 135, 94
1742, 925, -297, -186, -70, 210, -70, -858, 126, 97
1743, 924, -297, -186, 0, 210, -70, -862, 132, 99
1744, 924, -298, -186, 0, 210, -70, -847, 135, 102
1745, 924, -296, -185, -70, 140, -70, -855, 121, 94
1746, 924, -298, -186, -70, 210, -70, -855, 135, 102
1747, 924, -298, -185, 0, 140, -140, -865, 126, 102
1748, 924, -297, -187, -70, 140, -70, -858, 139, 106
1749, 924, -297, -187, 0, 210, -70, -850, 127, 105
1750, 925, -297, -185, -70, 210, -70, -850, 138, 105
1751, 924, -297, -186, 0, 140, -70, -858, 132, 103
1752, 924, -297, -187, 0, 140, -70, -855, 129, 109
1753, 924, -297, -186, 0, 210, -140, -856, 123, 103
1754, 925, -298, -186, -70, 140, -70, -861, 133, 102
1755, 924, -297, -185, -70, 140, -70, -850, 127, 94
1756, 924, -297, -186, 0, 210, -70, -853, 127, 109
1757, 924, -297, -185, 0, 140, -70, -852, 135, 97
1758, 924, -297, -186, 0, 140, -70, -850, 124, 99
1759, 924, -298, -186, 0, 140, -70, -853, 127, 109
1760, 924, -297, -186, 0, 140, -70, -855, 133, 99
1761, 924, -297, -185, -70, 210, -70, -858, 127, 102
1762, 925, -298, -185, 0, 140, -70, -861, 130, 109
1763, 925, -298, -186, -70, 140, -70, -853, 127, 94
1764, 923, -297, -186, -70, 210, -70, -849, 130, 99
1765, 925, -297, -187, 0, 210, -70, -850, 129, 97
1766, 924, -297, -186, 0, 140, -140, -847, 133, 100
1767, 924, -297, -186, -70, 210, -70, -852, 127, 97
1768, 924, -297, -185, 0, 140, 0, -859, 135, 99
1769, 924, -297, -187, -70, 140, -70, -856, 132, 97
1770, 924, -297, -186, -70, 210, -70, -858, 130, 96
1771, 924, -297, -186, 0, 140, -70, -859, 130, 91
1772, 924, -297, -185, 0, 140, -70, -844, 127, 102
1773, 925, -297, -186, 0, 140, -70, -849, 130, 96
1774, 925, -297, -186, 0, 140, -70, -850, 126, 105
1775, 925, -298, -186, -70, 140, -70, -853, 132, 96
1776, 924, -298, -187, 0, 140, -70, -856, 129, 105
1777, 924, -297, -186, 0, 210, -70, -850, 129, 102
1778, 924, -297, -186, 0, 140, -70, -856, 130, 99
1779, 924, -297, -185, 70, 140, -70, -853, 127, 99
1780, 924, -298, -185, 0, 140, -70, -843, 127, 97
1781, 925, -298, -186, 0, 210, -70, -850, 121, 97
1782, 925, -297, -186, 0, 140, -70, -850, 126, 111
1783, 925, -297, -185, -70, 140, -70, -856, 130, 106
1784, 924, -296, -186, 0, 140, -70, -858, 130, 106
1785, 924, -298, -186, 70, 210, 0, -855, 130, 99
1786, 924, -297, -186, 0, 210, -70, -849, 124, 103
1787, 925, -297, -186, 0, 140, -70, -856, 130, 93
1788, 925, -297, -186, 0, 140, -70, -853, 129, 109
1789, 924, -297, -185, 0, 140, -70, -853, 133, 100
1790, 924, -298, -186, -70, 140, -70, -855, 135, 96
1791, 924, -297, -186, 0, 210, -70, -847, 120, 97
1792, 924, -297, -186, 0, 210, -70, -856, 126, 106
1793, 924, -297, -186, 0, 140, -70, -850, 121, 93
1794, 925, -298, -186, 0, 140, -70, -856, 127, 103
1795, 925, -297, -186, 0, 140, -70, -846, 121, 106
1796, 925, -296, -186, 0, 140, -70, -852, 130, 97
1797, 924, -297, -185, 140, 70, -70, -858, 124, 91
1798, 924, -297, -186, 0, 140, -70, -855, 135, 103
1799, 924, -297, -186, 0, 210, -70, -850, 130, 108
1800, 923, -296, -187, -70, 140, -70, -858, 124, 96
1801, 924, -297, -185, 70, 210, -140, -852, 132, 93
1802, 924, -297, -186, 0, 210, -140, -853, 129, 97
1803, 924, -298, -187, 0, 140, -70, -859, 126, 91
1804, 924, -297, -186, 0, 140, -70, -855, 129, 97
1805, 924, -297, -186, -70, 140, -70, -856, 135, 102
1806, 924, -297, -185, 0, 140, -70, -856, 133, 103
1807, 925, -297, -186, -70, 140, -70, -849, 135, 100
1808, 925, -297, -187, 0, 140, -70, -850, 126, 111
1809, 925, -297, -186, 0, 140, -70, -847, 127, 100
1810, 925, -297, -186, 0, 140, -70, -858, 136, 102
1811, 924, -297, -187, 0, 140, -70, -856, 127, 85
1812, 924, -297, -186, -70, 210, -70, -853, 126, 99
1813, 924, -297, -186, -70, 140, -70, -856, 129, 103
1814, 924, -297, -186, -70, 210, -70, -847, 130, 96
1815, 924, -297, -185, 0, 140, -70, -850, 129, 99
1816, 925, -297, -186, 0, 140, -70, -850, 127, 102
1817, 924, -298, -186, -70, 140, -70, -856, 130, 99
1818, 923, -297, -186, 0, 210, -70, -847, 129, 103
1819, 925, -298, -186, 0, 140, -70, -853, 124, 106
1820, 925, -297, -186, -70, 140, -70, -856, 130, 105
1821, 925, -296, -186, -70, 140, -70, -858, 129, 88
1822, 924, -297, -185, -70, 140, -70, -852, 127, 100
1823, 924, -297, -186, 0, 140, -70, -856, 135, 99
1824, 924, -297, -186, 0, 140, -70, -855, 130, 105
1825, 924, -297, -186, 70, 140, -70, -844, 129, 91
1826, 924, -297, -186, 0, 140, -70, -849, 132, 102
1827, 925, -298, -185, -70, 210, -140, -864, 126, 96
1828, 924, -297, -185, -70, 210, -70, -856, 123, 108
1829, 925, -297, -186, 0, 70, -70, -859, 126, 94
1830, 925, -297, -185, 0, 140, -70, -850, 123, 91
1831, 924, -297, -187, 0, 140, -70, -864, 132, 94
1832, 924, -297, -186, -70, 210, -70, -844, 123, 99
1833, 924, -297, -186, 70, 140, -70, -849, 130, 90
1834, 924, -298, -185, 0, 210, -70, -844, 130, 103
1835, 924, -297, -186, -70, 140, -70, -847, 133, 94
1836, 924, -297, -186, -70, 140, -70, -862, 132, 96
1837, 923, -297, -186, 0, 140, -70, -852, 130, 99
1838, 924, -296, -185, 0, 140, -70, -855, 127, 97
1839, 924, -297, -186, 0, 140, -70, -856, 127, 105
1840, 924, -297, -186, -70, 210, -70, -849, 130, 97
1841, 925, -297, -185, 0, 140, -70, -847, 129, 99
1842, 924, -297, -186, 0, 140, -70, -856, 121, 106
1843, 924, -297, -186, -70, 140, -70, -856, 124, 102
1844, 924, -297, -186, 0, 70, -70, -856, 121, 99
1845, 924, -298, -186, -70, 210, -70, -858, 136, 93
1846, 924, -297, -185, -70, 140, -70, -847, 123, 96
1847, 924, -297, -186, 0, 210, -70, -853, 124, 91
1848, 923, -297, -186, -70, 140, -70, -850, 123, 94
1849, 924, -297, -186, -70, 210, -70, -862, 135, 108
1850, 924, -297, -186, 0, 140, -70, -856, 138, 99
1851, 925, -298, -187, 0, 140, -70, -849, 136, 100
1852, 925, -297, -185, -70, 140, -70, -856, 136, 105
1853, 925, -297, -186, -70, 140, -140, -852, 118, 94
1854, 924, -297, -186, 0, 140, -140, -855, 127, 102
1855, 924, -297, -186, -70, 210, -70, -856, 126, 99
1856, 925, -297, -185, 0, 140, -70, -849, 127, 87
1857, 924, -297, -187, -70, 140, -70, -846, 127, 108
1858, 924, -298, -186, -70, 140, -70, -856, 124, 103
1859, 924, -297, -186, -70, 140, -140, -850, 129, 94
1860, 923, -296, -186, -70, 140, -70, -855, 132, 100
1861, 923, -298, -186, 0, 140, -70, -859, 132, 100
1862, 925, -297, -186, 0, 70, -70, -852, 130, 99
1863, 923, -298, -185, 0, 140, -70, -855, 123, 102
1864, 923, -296, -186, 0, 140, -70, -838, 127, 93
1865, 924, -297, -186, 0, 210, -70, -849, 129, 93
1866, 925, -297, -185, 0, 210, -70, -853, 129, 106
1867, 926, -296, -185, 0, 210, -70, -850, 123, 103
1868, 923, -296, -185, 70, 210, -70, -856, 135, 105
1869, 926, -298, -186, 0, 70, -70, -862, 127, 94
1870, 924, -297, -186, 70, 210, -70, -862, 132, 102
1871, 924, -297, -185, -70, 140, -70, -858, 135, 93
1872, 925, -297, -187, 0, 140, 0, -853, 132, 99
1873, 924, -297, -186, 70, 210, -70, -852, 123, 102
1874, 923, -297, -186, -70, 140, -70, -858, 130, 106
1875, 924, -297, -185, 0, 140, 0, -850, 126, 90
1876, 939, -287, -190, 0, 210, 0, -850, 136, 105
1877, 918, -303, -187, 350, 770, -70, -849, 129, 102
1878, 920, -293, -184, -490, -350, -70, -853, 132, 100
1879, 935, -304, -187, 700, 1260, 0, -853, 121, 100
1880, 940, -309, -186, 70, 420, 0, -855, 132, 99
1881, 997, -298, -200, -140, 840, 0, -856, 123, 93
1882, 1038, -261, -253, 4970, 11830, 1820, -847, 141, 97
1883, 1078, -241, -252, 1610, 12530, 1680, -858, 121, 105
1884, 907, -215, -207, 12670, 28140, 4130, -852, 127, 100
1885, 793, -318, -150, 9940, 21490, 3080, -853, 129, 97
1886, 855, -381, -141, -3850, 1750, 140, -853, 133, 96
1887, 868, -355, -117, 4760, 9170, 1120, -858, 127, 87
1888, 872, -325, -111, -2800, -2310, -770, -861, 124, 96
1889, 885, -303, -130, -3430, -7280, -1540, -849, 127, 102
1890, 914, -360, -177, -840, -5670, -1610, -855, 129, 100
1891, 1030, -396, -195, -5530, -11900, -3990, -850, 135, 96
1892, 993, -381, -187, 1540, -2730, -4060, -853, 132, 96
1893, 1168, -489, -234, -6930, -10780, -8470, -847, 126, 97
1894, 1225, -528, -274, -5460, -4830, -15400, -852, 133, 102
1895, 1108, -418, -251, 4620, 9660, -17640, -858, 124, 99
1896, 1236, -458, -279, -3570, 3990, -22260, -852, 136, 96
1897, 1135, -369, -274, 4970, 17990, -24430, -853, 133, 93
1898, 1218, -435, -305, -2380, 13510, -28770, -850, 133, 93
1899, 1167, -396, -290, -4200, 17570, -35140, -841, 135, 94
1900, 1075, -329, -257, 2660, 27790, -36960, -853, 148, 97
1901, 1130, -371, -247, -5460, 20720, -40530, -856, 139, 94
1902, 1102, -359, -225, 910, 30310, -41930, -859, 136, 87
1903, 1117, -393, -217, 2100, 35700, -46550, -853, 148, 91
1904, 1084, -392, -204, 560, 34580, -49140, -859, 147, 88
1905, 1037, -364, -193, 2520, 36960, -51030, -846, 160, 93
1906, 1029, -353, -185, 420, 34020, -53550, -850, 147, 88
1907, 1034, -335, -171, 630, 33740, -55580, -853, 165, 79
1908, 1018, -280, -141, -1190, 30450, -59500, -853, 162, 84
1909, 1032, -252, -125, -3360, 27650, -61250, -858, 166, 88
1910, 1072, -208, -121, -4340, 26530, -62300, -859, 181, 88
1911, 1150, -167, -134, -5810, 25340, -62510, -858, 172, 75
1912, 1277, -163, -169, -7490, 23940, -61600, -846, 187, 79
1913, 1230, -190, -238, -8540, 22400, -58660, -847, 199, 82
1914, 1069, -179, -233, -9800, 20580, -58800, -844, 187, 81
1915, 971, -174, -217, -11900, 18060, -60620, -846, 192, 79
1916, 983, -197, -200, -12670, 18270, -62930, -853, 202, 85
1917, 1020, -199, -179, -13090, 20720, -66360, -840, 198, 79
1918, 1100, -203, -154, -13930, 20720, -67060, -841, 208, 72
1919, 1108, -204, -146, -15120, 20300, -67620, -841, 213, 82
1920, 1069, -179, -134, -14770, 21980, -68110, -840, 210, 79
1921, 1052, -178, -126, -14980, 23380, -68950, -846, 217, 79
1922, 1039, -163, -111, -12250, 30170, -70210, -840, 226, 75
1923, 1057, -155, -109, -10640, 33460, -70560, -835, 223, 61
1924, 1066, -146, -109, -9310, 36750, -70700, -829, 226, 81
1925, 1058, -132, -106, -7280, 40460, -70700, -837, 234, 64
1926, 1031, -119, -101, -5810, 43400, -70980, -837, 247, 63
1927, 987, -100, -86, -5390, 44100, -72310, -829, 237, 67
1928, 975, -79, -81, -5950, 42980, -73220, -832, 247, 66
1929, 966, -49, -75, -7210, 41020, -74200, -819, 252, 66
1930, 968, -39, -74, -8050, 39480, -75110, -825, 265, 63
1931, 961, -21, -59, -10220, 36400, -76440, -831, 268, 61
1932, 966, 6, -44, -10990, 35630, -76790, -813, 253, 63
1933, 968, 14, -29, -10920, 36050, -76720, -813, 267, 52
1934, 960, 20, -22, -10010, 37870, -76440, -826, 271, 63
1935, 950, 24, -16, -9380, 39130, -76230, -814, 273, 55
1936, 947, 29, 9, -6650, 42840, -75530, -823, 271, 49
1937, 958, 27, 21, -4970, 44730, -75110, -814, 289, 61
1938, 928, 56, 38, -1470, 48300, -74200, -810, 295, 52
1939, 957, 58, 46, 1260, 50400, -73640, -814, 306, 46
1940, 970, 86, 36, 7770, 56840, -72380, -802, 304, 37
1941, 952, 97, -15, 19390, 69230, -69580, -802, 309, 45
1942, 866, 99, -27, 20720, 70140, -68880, -801, 306, 43
1943, 731, 177, -12, 20510, 67270, -68600, -796, 313, 46
1944, 682, 269, 6, 11760, 53060, -70280, -804, 318, 45
1945, 719, 359, 45, -1680, 30100, -74410, -795, 315, 48
1946, 812, 336, 64, -6860, 21490, -76510, -784, 319, 42
1947, 855, 299, 73, -9520, 15820, -77770, -786, 322, 45
1948, 913, 247, 64, -12810, 9800, -78540, -781, 324, 40
1949, 933, 211, 55, -12180, 9030, -78260, -777, 325, 27
1950, 859, 192, 64, -10780, 9170, -77350, -783, 336, 39
1951, 815, 235, 77, -11900, 7280, -77350, -774, 334, 40
1952, 822, 277, 85, -12040, 7140, -77070, -775, 340, 33
1953, 822, 331, 94, -12810, 6300, -76650, -768, 340, 31
1954, 836, 353, 99, -13440, 6090, -75950, -762, 348, 43
1955, 803, 371, 116, -15820, 2520, -75460, -760, 345, 37
1956, 815, 360, 114, -18060, -1120, -75670, -760, 343, 40
1957, 836, 350, 114, -19180, -3360, -75530, -750, 355, 45
1958, 840, 344, 112, -19600, -4410, -75180, -757, 363, 30
1959, 836, 354, 121, -20020, -5040, -73990, -750, 352, 45
1960, 840, 367, 125, -19600, -3640, -73010, -750, 351, 46
1961, 849, 376, 131, -18270, -490, -71750, -750, 361, 37
1962, 844, 388, 139, -15680, 4550, -70210, -736, 364, 36
1963, 836, 401, 148, -13510, 9450, -68460, -741, 367, 40
1964, 840, 427, 161, -6370, 23100, -64330, -741, 366, 36
1965, 840, 432, 158, -2380, 30240, -62090, -738, 364, 31
1966, 809, 451, 162, 1820, 37450, -59920, -726, 363, 30
1967, 772, 455, 166, 4340, 41510, -58380, -723, 370, 36
1968, 712, 480, 169, 6580, 43820, -57120, -726, 373, 34
1969, 677, 527, 180, 2100, 33810, -56840, -723, 378, 33
1970, 717, 528, 175, 490, 29960, -56840, -720, 378, 37
1971, 747, 543, 174, -1260, 26530, -56770, -717, 366, 22
1972, 789, 528, 173, -2590, 24500, -56770, -714, 388, 33
1973, 819, 489, 175, -2170, 25760, -56000, -712, 388, 28
1974, 828, 480, 180, -140, 29190, -55300, -711, 394, 30
1975, 791, 495, 194, 2520, 33040, -54600, -706, 390, 28
1976, 812, 485, 197, 1680, 32830, -54670, -699, 384, 30
1977, 816, 489, 200, 6580, 39970, -53550, -699, 393, 37
1978, 700, 564, 218, 6860, 39340, -52920, -699, 385, 28
1979, 622, 602, 237, 6790, 36960, -52850, -691, 388, 24
1980, 585, 627, 251, 1750, 27580, -53760, -682, 394, 34
1981, 573, 645, 260, -1190, 20440, -54250, -687, 388, 31
1982, 568, 667, 274, -6020, 11200, -54950, -682, 399, 24
1983, 636, 636, 293, -12250, -910, -55440, -672, 387, 28
1984, 690, 615, 293, -15190, -4970, -55300, -682, 394, 28
1985, 730, 599, 292, -13510, -2240, -54250, -675, 393, 22
1986, 724, 601, 300, -12880, -70, -53270, -661, 388, 25
1987, 713, 580, 310, -8260, 8260, -50470, -666, 396, 24
1988, 703, 587, 314, -7350, 10500, -49280, -664, 402, 25
1989, 682, 608, 318, -4480, 14630, -47880, -661, 400, 21
1990, 660, 625, 321, -3920, 15750, -46900, -664, 405, 22
1991, 637, 641, 321, -2660, 17360, -45780, -648, 402, 19
1992, 608, 668, 317, -3780, 15120, -44520, -654, 406, 25
1993, 598, 676, 316, -4340, 13720, -44100, -654, 400, 22
1994, 606, 673, 312, -5880, 11130, -43750, -649, 397, 19
1995, 613, 674, 308, -5810, 10570, -43120, -646, 391, 22
1996, 611, 684, 303, -6370, 9450, -42560, -637, 396, 18
1997, 619, 685, 294, -6440, 8960, -41300, -648, 397, 12
1998, 620, 683, 286, -5670, 9940, -40810, -646, 403, 18
1999, 622, 693, 276, -5670, 9660, -40530, -636, 403, 12
2000, 645, 690, 265, -6020, 9380, -40250, -639, 408, 16
2001, 652, 703, 248, -5950, 10010, -39830, -636, 397, 16
2002, 652, 701, 242, -5110, 11550, -39620, -631, 402, 13
2003, 628, 713, 240, -4830, 12250, -39410, -625, 399, 15
2004, 623, 713, 235, -5390, 11760, -39550, -616, 405, 18
2005, 616, 718, 232, -4970, 12250, -39410, -625, 397, 12
2006, 588, 733, 228, -4270, 12950, -39130, -622, 408, 10
2007, 561, 753, 228, -5180, 11340, -39200, -628, 393, 10
2008, 569, 746, 225, -6090, 9800, -39060, -619, 408, 18
2009, 544, 764, 229, -4760, 11200, -38640, -618, 405, 6
2010, 545, 771, 226, -6650, 10360, -37870, -610, 405, 9
2011, 511, 786, 229, -5320, 10080, -37380, -610, 409, 4
2012, 510, 780, 230, -6580, 8190, -36890, -607, 391, 1
2013, 487, 793, 241, -5460, 8750, -36120, -609, 391, 0
2014, 469, 803, 249, -6860, 6440, -35630, -600, 411, 1
2015, 458, 812, 264, -7980, 3150, -34440, -597, 402, 0
2016, 485, 802, 268, -8890, 1400, -33950, -606, 405, 18
2017, 502, 799, 271, -8050, 2170, -33040, -600, 400, 12
2018, 516, 795, 273, -8190, 2380, -32200, -609, 400, 1
2019, 529, 783, 274, -7140, 4200, -31360, -594, 402, 7
2020, 530, 778, 280, -5180, 7700, -29680, -595, 402, -1
2021, 521, 781, 284, -3990, 9590, -28910, -594, 400, -6
2022, 504, 787, 290, -3080, 10780, -28210, -591, 399, 3
2023, 487, 794, 294, -2520, 11480, -27510, -597, 396, 9
2024, 472, 806, 299, -2660, 10710, -26530, -597, 399, 12
2025, 463, 816, 302, -2240, 10780, -25970, -580, 402, 3
2026, 455, 820, 307, -2590, 9940, -25270, -579, 402, 9
2027, 454, 819, 310, -2520, 9870, -24430, -588, 402, 0
2028, 436, 834, 315, -1610, 10780, -23380, -585, 397, 9
2029, 408, 839, 326, -1750, 9800, -21280, -583, 411, 1
2030, 393, 846, 328, -980, 10290, -20020, -582, 394, 0
2031, 390, 851, 328, -1330, 9170, -18900, -580, 399, -4
2032, 392, 850, 328, -980, 9030, -17640, -568, 391, -1
2033, 396, 852, 327, -770, 8890, -16310, -576, 399, 4
2034, 391, 853, 327, 490, 10010, -13370, -570, 409, 3
2035, 380, 857, 327, 1890, 11410, -11830, -567, 390, -10
2036, 380, 855, 327, 1260, 10010, -10780, -585, 399, -4
2037, 385, 850, 325, 1610, 9590, -9940, -577, 393, -9
2038, 405, 848, 320, 0, 5740, -9310, -577, 400, 4
2039, 468, 828, 310, -1260, 3710, -9380, -571, 402, -9
2040, 496, 817, 306, -700, 4270, -9170, -567, 399, -1
2041, 511, 811, 304, -1050, 3920, -9310, -562, 399, 0
2042, 513, 808, 303, -560, 4620, -9310, -574, 397, 3
2043, 487, 805, 311, -980, 3850, -9660, -573, 396, 0
2044, 475, 807, 315, -1050, 3500, -9940, -561, 390, 3
2045, 465, 816, 320, -1050, 3080, -10080, -562, 400, -6
2046, 471, 816, 320, -1890, 2030, -10360, -568, 397, -1
2047, 474, 822, 320, -1330, 2520, -10360, -561, 396, -3
2048, 484, 821, 321, -1960, 1820, -10500, -567, 393, -9
2049, 488, 815, 320, -2450, 1400, -10710, -574, 397, -9
2050, 491, 811, 320, -2100, 1890, -10780, -562, 405, 6
2051, 491, 811, 321, -2310, 1820, -10990, -562, 394, -7
2052, 489, 811, 320, -2030, 2170, -11060, -570, 393, -4
2053, 473, 818, 322, -1960, 2380, -11130, -562, 390, -1
2054, 469, 819, 322, -2030, 2380, -11200, -570, 394, 3
2055, 467, 821, 322, -1750, 2870, -11270, -555, 399, -10
2056, 468, 823, 320, -1890, 3010, -11270, -555, 406, -3
2057, 469, 823, 318, -1330, 3990, -11060, -558, 400, -13
2058, 467, 825, 316, -840, 5040, -10780, -562, 396, 0
2059, 459, 831, 316, -210, 6090, -10430, -558, 400, 1
2060, 447, 838, 316, 280, 7070, -10080, -562, 394, -9
2061, 429, 846, 317, 840, 7700, -9730, -558, 394, -13
2062, 390, 859, 318, 700, 7000, -8960, -558, 399, -6
2063, 378, 861, 320, 210, 5810, -8680, -567, 399, -7
2064, 371, 863, 320, -280, 4340, -8470, -552, 390, 1
2065, 372, 865, 320, -1260, 2450, -8330, -565, 384, -7
2066, 387, 863, 320, -2450, -560, -7980, -552, 390, -13
2067, 423, 853, 318, -2590, -840, -7630, -559, 394, -4
2068, 432, 848, 318, -2380, -420, -7280, -555, 393, -1
2069, 430, 844, 317, -1820, 280, -6790, -549, 393, -4
2070, 431, 840, 319, -1680, 700, -6510, -547, 388, -9
2071, 455, 832, 314, 210, 3920, -5950, -552, 400, 3
2072, 442, 841, 314, 420, 4550, -5740, -544, 390, 0
2073, 431, 839, 314, 210, 3990, -5810, -553, 399, -3
2074, 414, 847, 318, 0, 3220, -5880, -552, 394, -1
2075, 417, 848, 318, -1330, 1120, -6230, -553, 393, -4
2076, 439, 843, 317, -1470, 840, -6440, -553, 396, -15
2077, 451, 836, 315, -1400, 1050, -6510, -555, 397, -3
2078, 454, 836, 314, -910, 1820, -6370, -553, 387, 1
2079, 450, 836, 316, -840, 2170, -6370, -552, 399, -1
2080, 444, 839, 319, -280, 3360, -6370, -547, 397, -9
2081, 428, 839, 319, -350, 3290, -6510, -543, 394, -1
2082, 427, 843, 318, -490, 3010, -6650, -555, 390, -7
2083, 429, 845, 317, -840, 2240, -6860, -553, 402, -9
2084, 435, 843, 316, -1190, 1820, -7000, -550, 397, -3
2085, 440, 841, 318, -1120, 2240, -7140, -552, 393, -3
2086, 439, 841, 317, -770, 2730, -7210, -541, 400, 1
2087, 437, 840, 317, -770, 2940, -7350, -543, 391, -7
2088, 434, 839, 317, -770, 3010, -7420, -546, 393, -3
2089, 432, 840, 318, -770, 2940, -7630, -547, 390, 0
2090, 430, 844, 317, -840, 2870, -7910, -540, 391, -12
2091, 431, 845, 316, -840, 3010, -8120, -547, 387, -6
2092, 432, 845, 316, -980, 3010, -8330, -544, 391, 1
2093, 432, 844, 316, -980, 2940, -8470, -540, 394, -9
2094, 431, 842, 317, -980, 3220, -8890, -541, 402, 1
2095, 430, 842, 317, -980, 3360, -9100, -540, 394, -1
2096, 428, 843, 317, -980, 3570, -9310, -544, 396, -4
2097, 428, 844, 316, -1050, 3430, -9520, -544, 388, -10
2098, 429, 845, 316, -1120, 3570, -9800, -543, 397, 4
2099, 427, 846, 316, -1190, 3710, -10220, -529, 391, -4
2100, 427, 845, 316, -1330, 3780, -10500, -543, 393, 0
2101, 427, 844, 317, -1260, 3850, -10780, -532, 399, -10
2102, 426, 843, 317, -1330, 4060, -11060, -540, 396, -4
2103, 425, 843, 316, -1330, 4200, -11340, -543, 393, 3
2104, 424, 846, 316, -1400, 4340, -11970, -531, 397, -1
2105, 424, 847, 317, -1400, 4620, -12320, -532, 388, 0
2106, 423, 847, 317, -1400, 4620, -12600, -543, 388, -1
2107, 422, 847, 317, -1470, 4690, -12950, -532, 396, -9
2108, 420, 845, 317, -1610, 5040, -13650, -529, 388, -6
2109, 419, 844, 318, -1610, 5110, -14070, -532, 391, -10
2110, 419, 844, 318, -1610, 5320, -14490, -535, 387, -7
2111, 417, 846, 319, -1610, 5460, -14910, -531, 387, -4
2112, 416, 847, 318, -1750, 5600, -15330, -525, 391, -7
2113, 415, 846, 319, -1890, 5950, -16240, -529, 384, -7
2114, 414, 846, 319, -1890, 6020, -16730, -532, 393, -1
2115, 413, 846, 319, -1960, 6160, -17220, -520, 390, -1
2116, 411, 846, 319, -2030, 6370, -17710, -525, 388, 4
2117, 411, 845, 320, -2030, 6580, -18200, -529, 390, -9
2118, 415, 849, 310, -2240, 6860, -19390, -528, 394, -4
2119, 427, 867, 287, -3080, 6370, -20510, -528, 385, -12
2120, 431, 865, 288, -5320, 4200, -21980, -522, 375, -9
2121, 377, 914, 253, -2450, 8470, -21490, -531, 387, -13
2122, 347, 1037, 150, -8750, 6650, -20580, -516, 385, -15
2123, 386, 904, 190, -12320, 4480, -21210, -510, 381, -7
2124, 316, 743, 288, -2100, 14350, -20300, -514, 390, -1
2125, 283, 645, 333, 840, 12810, -21350, -513, 382, -16
2126, 229, 711, 354, 12040, 21210, -19530, -522, 394, -9
2127, 142, 999, 434, 14420, 22890, -15400, -514, 384, -9
2128, -90, 1144, 482, 15400, 23660, -12390, -519, 379, -10
2129, -562, 1343, 580, 31150, 35280, -1330, -514, 381, -10
2130, 7, 1042, 605, -40880, -44170, -8190, -507, 375, -21
2131, 330, 671, 507, -9380, -8820, -7070, -514, 382, -16
2132, -37, 992, 520, -2380, 5950, 6090, -511, 385, -6
2133, 364, 832, 450, -1190, 3710, 10220, -513, 382, -3
2134, -55, 1048, 457, 26180, 32060, 16660, -501, 385, -9
2135, -28, 1129, 467, 1540, 3850, 15960, -511, 382, -1
2136, 143, 860, 384, 9800, 7700, 18130, -511, 387, -3
2137, 18, 949, 365, 3920, -3010, 18340, -514, 382, 0
2138, 299, 921, 337, -8260, -20510, 18200, -520, 378, -3
2139, 221, 895, 350, 5040, -8190, 21630, -516, 385, -7
2140, 261, 927, 389, -2940, -17010, 21420, -523, 387, -7
2141, 328, 927, 363, 5530, -4060, 23520, -526, 387, -6
2142, 268, 902, 339, 3570, -5950, 24080, -511, 382, 0
2143, 393, 853, 325, -2800, -14210, 23380, -522, 382, 6
2144, 325, 846, 339, 4130, -7840, 25200, -522, 388, 6
2145, 394, 872, 349, -5600, -8050, 24500, -526, 379, -9
2146, 402, 866, 339, -1960, -13860, 22120, -522, 397, 4
2147, 421, 810, 314, 2730, -8260, 22400, -520, 391, -6
2148, 486, 813, 294, -2310, -14490, 20300, -520, 397, -12
2149, 462, 809, 288, 2380, -9520, 20860, -526, 391, -1
2150, 486, 836, 292, 3290, -6440, 18900, -528, 394, 0
2151, 537, 832, 287, -4690, -13650, 15820, -532, 391, -4
2152, 535, 804, 276, 3640, -2870, 16100, -537, 399, 6
2153, 550, 800, 265, -3290, -10360, 13160, -534, 396, -4
2154, 522, 798, 260, 3570, -2170, 13440, -529, 388, 1
2155, 481, 821, 269, 3430, -1260, 10850, -537, 393, -4
2156, 489, 816, 276, -2380, -7280, 8190, -535, 400, -1
2157, 467, 826, 283, 4130, 560, 8680, -537, 400, -9
2158, 470, 832, 291, -1960, -6160, 6510, -543, 391, 1
2159, 449, 845, 303, -1890, -5810, 5600, -546, 387, 6
2160, 441, 842, 320, 3430, 910, 6510, -541, 379, 1
2161, 435, 838, 328, -910, -3220, 5180, -540, 396, -4
2162, 415, 850, 331, 3780, 2730, 6020, -546, 391, -6
2163, 399, 843, 336, -490, -2170, 4970, -534, 391, -6
2164, 390, 855, 338, -1190, -3360, 5110, -537, 393, 0
2165, 391, 863, 336, 2380, 350, 6090, -538, 390, 0
2166, 373, 868, 335, -210, -2450, 5670, -547, 406, -7
2167, 370, 876, 329, 1820, -350, 6370, -538, 397, 0
2168, 383, 867, 319, -1120, -3780, 5740, -543, 394, -13
2169, 399, 852, 307, -1960, -5320, 5950, -552, 397, -1
2170, 403, 855, 309, 630, -2310, 6650, -543, 396, -1
2171, 397, 842, 316, -420, -3150, 6580, -535, 396, 3
2172, 395, 840, 321, 2170, -280, 7210, -540, 394, -4
2173, 393, 835, 327, 2310, -1330, 7420, -552, 396, -12
2174, 398, 839, 343, 1120, -3010, 7140, -546, 393, -4
2175, 402, 846, 350, 1750, -2520, 7140, -552, 397, 3
2176, 413, 836, 350, 420, -3920, 6790, -543, 390, -3
2177, 430, 843, 352, 700, -3430, 6860, -549, 390, 0
2178, 437, 858, 350, 490, -3430, 7000, -543, 390, 4
2179, 417, 858, 341, 210, -3290, 7140, -549, 390, 3
2180, 408, 871, 329, 420, -2870, 7420, -553, 388, -9
2181, 415, 863, 307, -350, -3570, 7280, -549, 394, 0
2182, 426, 849, 296, -490, -3500, 7280, -547, 394, 1
2183, 445, 835, 283, -210, -3360, 6860, -558, 396, -10
2184, 452, 827, 280, -70, -3430, 6440, -552, 391, 0
2185, 455, 832, 286, 350, -3430, 6020, -556, 394, -6
2186, 461, 836, 285, 350, -4130, 5460, -550, 391, -7
2187, 469, 852, 291, -560, -4760, 4410, -555, 394, -6
2188, 473, 827, 305, -1050, -4900, 3780, -544, 390, 7
2189, 498, 831, 305, -1120, -4340, 3290, -547, 390, -3
2190, 517, 826, 310, -1400, -4130, 2800, -543, 393, -9
2191, 523, 802, 313, -910, -2730, 2240, -553, 397, -3
2192, 536, 762, 319, 1190, 1120, 840, -553, 390, -6
2193, 539, 760, 322, 1190, 1470, -210, -546, 397, 4
2194, 536, 767, 327, 2310, 2730, -1190, -561, 393, -1
2195, 537, 801, 334, 1260, 1750, -2590, -553, 387, 4
2196, 540, 822, 337, 980, 1820, -3850, -549, 394, 3
2197, 550, 806, 313, -700, 2100, -6440, -552, 397, 0
2198, 546, 799, 301, -2450, 980, -7910, -553, 400, -7
2199, 538, 809, 293, -1470, 2730, -8610, -552, 390, 1
2200, 524, 807, 287, -3080, 1540, -9940, -546, 390, 3
2201, 507, 821, 292, -2310, 2660, -11830, -550, 394, -6
2202, 493, 825, 284, -1050, 4200, -12460, -553, 390, -10
2203, 480, 819, 279, -1750, 3430, -13370, -547, 399, -6
2204, 468, 818, 278, -1050, 4550, -13790, -543, 388, -10
2205, 465, 827, 271, -1540, 4690, -14490, -543, 393, 1
2206, 459, 839, 283, -1540, 6230, -15050, -537, 399, 0
2207, 447, 865, 289, -210, 8330, -14980, -550, 394, -3
2208, 425, 861, 293, -1260, 7280, -15470, -543, 400, -1
2209, 408, 843, 296, -840, 7700, -15540, -531, 391, -4
2210, 397, 834, 298, -980, 7070, -15890, -541, 396, 1
2211, 386, 865, 307, -910, 6650, -16030, -540, 390, -9
2212, 381, 895, 309, -700, 7000, -15820, -540, 391, -1
2213, 373, 900, 311, -2100, 5530, -15820, -532, 388, -12
2214, 367, 884, 309, -2380, 5460, -15470, -535, 385, -4
2215, 359, 864, 317, -1820, 6160, -14490, -532, 393, -1
2216, 320, 859, 317, -1190, 6440, -13930, -540, 393, 0
2217, 327, 883, 317, -1330, 5670, -13510, -534, 384, -6
2218, 330, 911, 316, -700, 5810, -13020, -540, 391, -4
2219, 336, 919, 319, -2030, 3990, -12810, -534, 382, -3
2220, 252, 869, 341, -700, 5040, -11550, -528, 391, -9
2221, 228, 882, 355, -210, 5880, -9870, -528, 385, -12
2222, 276, 865, 342, -560, 5320, -9240, -538, 388, 1
2223, 281, 957, 355, 4900, 9800, -6230, -531, 385, -1
2224, 327, 917, 354, -6860, -5110, -7140, -529, 397, 3
2225, 240, 927, 378, -2800, -70, -5180, -525, 384, -4
2226, 295, 875, 355, 350, 4410, -3920, -525, 390, -3
2227, 281, 860, 341, 910, 4620, -3290, -531, 388, -7
2228, 312, 876, 341, -1120, 560, -2310, -531, 379, 3
2229, 319, 906, 368, -70, -350, -910, -528, 393, -3
2230, 327, 873, 370, -2450, -2380, -1260, -522, 394, -3
2231, 345, 874, 365, 2240, 3640, -350, -520, 390, -1
2232, 327, 872, 355, 630, 1540, -420, -520, 385, -3
2233, 350, 870, 348, -70, -210, 0, -528, 384, -7
2234, 349, 880, 362, -1400, -2380, 840, -522, 382, -9
2235, 341, 862, 368, -210, -420, 1330, -526, 382, -7
2236, 342, 882, 370, 980, 1470, 1680, -534, 400, -3
2237, 333, 877, 365, 1190, 1610, 2100, -519, 382, -9
2238, 337, 872, 360, 560, 0, 2380, -526, 387, -10
2239, 331, 872, 351, -140, -1960, 3290, -522, 390, -7
2240, 326, 883, 348, 1190, -70, 3990, -537, 397, -1
2241, 333, 895, 345, 490, -350, 4200, -529, 385, -15
2242, 341, 881, 334, 840, -70, 4620, -534, 397, 9
2243, 367, 861, 323, 280, -2100, 4970, -525, 384, -3
2244, 375, 852, 326, -490, -3360, 4830, -538, 390, -6
2245, 371, 857, 330, 1400, -980, 4900, -526, 387, 0
2246, 385, 872, 328, 560, -1680, 4410, -532, 391, -4
2247, 400, 879, 321, 1330, -630, 4550, -534, 393, -3
2248, 400, 859, 321, 350, -1470, 4480, -535, 393, -4
2249, 388, 858, 324, 140, -1330, 4270, -528, 385, -7
2250, 379, 858, 322, 980, 280, 4340, -532, 390, -7
2251, 382, 853, 319, 280, -560, 3920, -534, 394, -10
2252, 389, 854, 317, 770, -770, 3850, -534, 385, -4
2253, 403, 864, 322, 280, -1610, 3220, -534, 385, 0
2254, 408, 856, 323, -420, -2100, 2800, -532, 390, -3
2255, 418, 848, 319, 350, -840, 2660, -534, 384, 1
2256, 425, 842, 319, -140, -980, 2240, -526, 391, -9
2257, 426, 841, 324, -70, -560, 1610, -532, 387, -1
2258, 426, 846, 325, 420, 280, 1190, -534, 393, 1
2259, 429, 845, 325, 140, 210, 560, -529, 388, 0
2260, 431, 845, 325, 420, 630, 70, -538, 387, -6
2261, 428, 843, 325, 70, 210, -490, -537, 385, -10
2262, 418, 848, 325, -70, 490, -1330, -534, 385, -6
2263, 421, 849, 324, -350, 560, -1610, -534, 393, -3
2264, 420, 849, 323, -140, 980, -1890, -538, 388, -1
2265, 417, 850, 322, -350, 1050, -2310, -531, 391, -12
2266, 413, 848, 321, -70, 1400, -2660, -532, 382, 0
2267, 417, 843, 316, -350, 1190, -3570, -523, 393, -9
2268, 423, 844, 317, -350, 1260, -3990, -528, 388, -3
2269, 425, 848, 318, -280, 1540, -4340, -537, 391, -7
2270, 422, 854, 320, -70, 2240, -4690, -534, 379, -18
2271, 412, 854, 320, -490, 2310, -5530, -532, 397, -7
2272, 401, 856, 322, -420, 2520, -5740, -529, 393, -6
2273, 393, 856, 326, -770, 2170, -6090, -528, 399, -6
2274, 384, 861, 328, -140, 3010, -6230, -534, 382, -3
2275, 381, 862, 324, -770, 2310, -6510, -532, 393, 0
2276, 388, 861, 323, -1260, 1470, -6860, -529, 391, -7
2277, 386, 862, 328, -910, 2030, -6930, -531, 393, -6
2278, 383, 861, 331, -840, 2240, -7070, -529, 379, -1
2279, 379, 862, 330, -210, 3360, -7000, -522, 388, 0
2280, 380, 862, 326, -770, 2800, -7280, -531, 388, -24
2281, 385, 859, 324, -1260, 1750, -7560, -529, 390, -10
2282, 385, 862, 327, -980, 2310, -7770, -529, 394, -7
2283, 388, 864, 327, -980, 2730, -8120, -523, 375, -3
2284, 388, 864, 327, -560, 3500, -8330, -535, 378, -9
2285, 384, 858, 324, -420, 3710, -8470, -528, 390, 0
2286, 376, 859, 325, -770, 3360, -8680, -532, 385, -4
2287, 372, 863, 326, -700, 3500, -8960, -520, 391, -4
2288, 371, 869, 328, -910, 3500, -9240, -528, 387, -6
2289, 375, 871, 330, -1120, 3290, -9660, -526, 396, 0
2290, 371, 868, 329, -1120, 3500, -9940, -520, 376, 1
2291, 366, 866, 329, -1050, 3780, -9940, -528, 387, -3
2292, 356, 869, 329, -700, 4410, -9940, -522, 390, -4
2293, 349, 873, 328, -700, 4550, -9940, -520, 381, -9
2294, 347, 871, 328, -840, 4200, -10080, -523, 381, 1
2295, 345, 875, 334, -1470, 3360, -10360, -525, 388, 1
2296, 345, 874, 336, -910, 3850, -10360, -519, 390, -10
2297, 348, 870, 338, -1470, 3080, -10570, -516, 387, -4
2298, 349, 868, 340, -770, 3850, -10430, -516, 382, -9
2299, 337, 874, 347, -700, 4270, -10360, -516, 391, 3
2300, 333, 875, 350, -700, 4340, -10290, -514, 385, -10
2301, 331, 879, 351, -630, 4340, -10220, -519, 385, -6
2302, 332, 877, 352, -840, 4060, -10220, -519, 379, -4
2303, 328, 877, 351, -770, 4130, -10220, -523, 390, 6
2304, 328, 876, 347, -840, 3990, -10150, -516, 385, -1
2305, 326, 877, 346, -630, 4060, -10220, -507, 381, -4
2306, 324, 878, 346, -700, 4060, -10150, -513, 384, -7
2307, 319, 880, 348, -420, 4480, -10010, -511, 379, -6
2308, 313, 885, 348, -70, 4970, -9590, -517, 385, -4
2309, 303, 891, 345, -140, 4970, -9380, -499, 373, -4
2310, 298, 893, 342, -210, 4760, -9170, -511, 382, -1
2311, 296, 896, 341, -350, 4340, -9100, -507, 379, -3
2312, 293, 896, 339, -490, 3990, -8960, -510, 381, -10
2313, 299, 892, 338, -840, 3220, -8820, -507, 382, -12
2314, 300, 891, 339, -980, 3010, -8680, -502, 387, -4
2315, 299, 890, 340, -770, 3080, -8470, -504, 381, -6
2316, 297, 891, 343, -560, 3220, -8400, -499, 384, -3
2317, 294, 893, 344, -420, 3570, -8190, -520, 382, -7
2318, 289, 895, 345, -280, 3570, -7770, -498, 382, -1
2319, 287, 897, 346, -490, 3290, -7560, -505, 375, -15
2320, 285, 896, 347, -490, 3150, -7420, -502, 391, 1
2321, 286, 895, 348, -700, 2870, -7280, -504, 378, -7
2322, 286, 893, 349, -560, 2730, -7000, -505, 373, -6
2323, 285, 891, 351, -420, 2870, -6860, -508, 367, -7
2324, 285, 893, 351, -350, 2800, -6650, -501, 381, -1
2325, 287, 895, 348, -420, 2660, -6580, -504, 379, -3
2326, 289, 896, 347, -560, 2520, -6440, -505, 376, -10
2327, 292, 893, 345, -770, 2450, -6300, -501, 372, -15
2328, 292, 891, 345, -700, 2450, -6370, -498, 379, -6
2329, 292, 889, 344, -560, 2450, -6300, -502, 381, -6
2330, 291, 889, 345, -420, 2590, -6300, -499, 384, -13
2331, 289, 889, 346, -560, 2310, -6370, -498, 378, -1
2332, 281, 898, 350, -280, 2730, -6160, -507, 382, 6
2333, 278, 899, 352, -140, 2940, -6020, -493, 379, -19
2334, 271, 900, 353, -70, 3080, -5810, -499, 373, -9
2335, 265, 900, 356, -70, 3010, -5460, -499, 373, -1
2336, 258, 901, 357, 280, 3150, -4760, -504, 381, -3
2337, 248, 906, 358, 210, 3010, -4410, -499, 384, -3
2338, 247, 909, 356, 350, 2660, -4060, -489, 376, -12
2339, 247, 912, 353, 0, 2310, -3710, -490, 375, -4
2340, 244, 912, 352, -70, 1750, -3360, -495, 384, -4
2341, 244, 909, 352, 70, 1610, -2660, -505, 381, -10
2342, 246, 908, 352, -280, 1050, -2310, -496, 379, -4
2343, 247, 906, 354, 70, 1260, -1890, -502, 379, -7
2344, 244, 910, 354, 280, 1120, -1470, -496, 381, -4
2345, 243, 911, 357, 140, 910, -1050, -501, 376, -1
2346, 241, 914, 357, 280, 770, -140, -490, 376, -9
2347, 242, 913, 354, 140, 350, 0, -498, 378, -1
2348, 217, 938, 361, -2450, -3290, -560, -499, 387, -9
2349, 267, 890, 348, -7840, -9030, -490, -499, 376, -10
2350, 230, 921, 346, -3710, -5600, 420, -498, 388, -12
2351, 258, 899, 352, 5670, 6090, 3080, -489, 379, -12
2352, 240, 915, 355, 5460, 5530, 3500, -495, 372, -12
2353, 242, 914, 355, 3500, 3220, 3570, -499, 379, -6
2354, 251, 909, 353, 3080, 2380, 3710, -501, 373, -13
2355, 252, 909, 355, 70, -1470, 3640, -502, 379, -9
2356, 271, 894, 351, -350, -2030, 3780, -502, 375, -10
2357, 264, 900, 354, 1330, -210, 4340, -496, 382, -12
2358, 266, 900, 355, -70, -1960, 4270, -493, 382, -4
2359, 273, 896, 354, 700, -1120, 4620, -498, 378, -10
2360, 251, 928, 350, -1470, -4340, 3780, -504, 370, 0
2361, 325, 871, 345, 2520, -280, 3850, -501, 372, -13
2362, 236, 932, 360, -29610, -36190, 1190, -496, 381, -9
2363, 348, 839, 336, 4270, 1680, 4130, -496, 375, -10
2364, 348, 849, 337, -140, -3290, 3570, -505, 382, -6
2365, 249, 936, 355, 4550, 2660, 4690, -505, 376, -13
2366, 334, 859, 335, -4480, -8610, 2870, -495, 384, -15
2367, 300, 895, 345, 4130, 2170, 4480, -510, 382, -13
2368, 301, 886, 340, -700, -3220, 3570, -504, 381, -10
2369, 324, 874, 338, 9660, 8820, 4270, -495, 391, -6
2370, 330, 880, 339, 11410, 11060, 4340, -510, 376, -10
2371, 326, 870, 336, 15260, 15260, 4130, -504, 379, -6
2372, 299, 892, 339, 16730, 16100, 3430, -511, 375, -7
2373, 266, 893, 333, 13160, 8400, 140, -499, 385, -15
2374, -184, 848, 274, 42490, 6930, -103740, -493, 382, -4
2375, 212, 906, 342, 63560, 14700, -152250, -487, 372, 1
2376, 411, 936, 340, 52990, 10220, -139860, -487, 381, -10
2377, 374, 915, 332, 39900, -1260, -117740, -480, 375, -1
2378, 191, 965, 287, 37730, -11830, -103460, -469, 373, 1
2379, 117, 966, 289, 45080, -20930, -121450, -463, 373, -6
2380, 210, 965, 304, 47880, -17920, -127120, -459, 373, 1
2381, 306, 957, 293, 43190, -19320, -125370, -457, 376, -7
2382, 429, 988, 291, 40180, -26390, -100520, -447, 364, 0
2383, 160, 963, 262, 22470, -19110, -40740, -441, 364, -1
2384, 174, 929, 296, 28070, -19180, -49490, -445, 367, -1
2385, 69, 872, 263, 21560, -13580, -46340, -439, 364, 3
2386, 25, 819, 261, 23240, -17080, -64330, -432, 363, -6
2387, 234, 1142, 254, 41510, -40600, -135100, -424, 367, -3
2388, 657, 718, 404, 30940, 59640, -504980, -414, 357, -15
2389, -2, 854, 169, 71820, 180600, -451570, -384, 337, -16
2390, -53, 509, 162, 27160, 110740, -313110, -360, 309, -25
2391, 22, 309, 173, -5040, 103740, -211260, -342, 309, -9
2392, -453, 1207, 487, -110600, 191870, -128590, -331, 300, -24
2393, -369, 1332, 308, -116690, 235200, -73010, -325, 279, -24
2394, -216, 1111, 299, -128520, 188160, -8960, -318, 279, -21
2395, -456, 1392, 2, -82390, 165060, 24080, -315, 285, -21
2396, -638, 1042, 248, 19320, 109620, 14490, -313, 285, -12
2397, -295, 961, 227, -3430, 10850, 58800, -316, 297, -12
2398, -395, 1014, 245, 1400, 2380, 47180, -325, 288, -13
2399, -329, 984, 252, 4970, 11270, 16380, -330, 291, -13
2400, -272, 956, 249, 2870, 5320, 5670, -322, 277, -9
