Time [mS], AccX [mg],AccY [mg],AccZ [mg],GyroX [mdps],GyroY [mdps],GyroZ [mdps],MagX [mgauss],MagY [mgauss],MagZ [mgauss]
51420, -254, 962, 52, -980, 2940, 2100, -300, 250, -81
51421, -254, 965, 59, -280, 700, 2100, -310, 253, -76
51422, -255, 966, 60, 210, -1190, 2100, -306, 252, -87
51423, -247, 967, 68, 840, -3780, 2100, -301, 252, -81
51424, -242, 965, 71, 630, -3010, 2100, -297, 249, -85
51425, -228, 967, 84, 280, -1820, 2030, -309, 247, -87
51426, -229, 966, 81, -770, 1680, 2030, -303, 252, -84
51427, -233, 968, 76, -1260, 3850, 1960, -295, 253, -90
51428, -245, 966, 64, -1470, 4900, 1890, -307, 246, -76
51429, -252, 966, 56, -1050, 3010, 1820, -303, 253, -85
51430, -251, 967, 63, -420, 700, 1820, -301, 246, -87
51431, -250, 965, 66, -280, -140, 1820, -313, 259, -79
51432, -245, 968, 72, -420, -70, 1820, -298, 249, -78
51433, -243, 965, 65, 0, -1260, 1890, -297, 250, -69
51434, -243, 965, 62, 420, -2170, 1890, -303, 252, -82
51435, -249, 963, 50, 1330, -4690, 1890, -315, 249, -82
51436, -237, 967, 68, 2170, -7000, 1960, -300, 256, -84
51437, -204, 980, 123, -2100, 6650, 1820, -300, 256, -78
51438, -225, 974, 92, -4480, 14350, 1820, -304, 252, -82
51439, -225, 974, 93, -6300, 20020, 1750, -313, 252, -82
51440, -237, 969, 73, -7210, 22960, 1750, -321, 255, -85
51441, -240, 967, 68, -7280, 23380, 1680, -310, 244, -87
51442, -258, 960, 45, -5810, 18550, 1750, -312, 249, -79
51443, -269, 959, 30, -3220, 10360, 1750, -307, 250, -69
51444, -257, 965, 52, -980, 3080, 1890, -307, 250, -75
51445, -254, 966, 62, -140, 0, 1890, -304, 252, -70
51446, -252, 966, 67, 770, -3150, 2030, -306, 253, -81
51447, -259, 963, 57, 1750, -6440, 2100, -313, 258, -82
51448, -253, 965, 65, 2380, -8820, 2240, -307, 255, -79
51449, -243, 968, 73, 2590, -9450, 2380, -307, 255, -76
51450, -234, 970, 81, 2100, -7910, 2380, -309, 243, -76
51451, -229, 971, 79, -140, 0, 2520, -304, 261, -79
51452, -226, 971, 81, -980, 2730, 2590, -307, 246, -84
51453, -229, 971, 78, -1890, 5950, 2520, -304, 262, -64
51454, -230, 972, 80, -2800, 8680, 2520, -307, 255, -76
51455, -264, 964, 34, -2380, 7070, 2450, -307, 256, -70
51456, -243, 968, 61, -350, -140, 2520, -315, 246, -87
51457, -243, 967, 59, 70, -1540, 2520, -309, 259, -79
51458, -239, 967, 61, 700, -3710, 2520, -309, 255, -79
51459, -234, 967, 68, 1120, -5180, 2590, -304, 264, -78
51460, -225, 971, 83, 280, -1820, 2660, -303, 244, -84
51461, -229, 971, 75, -140, -280, 2660, -312, 261, -84
51462, -233, 969, 68, 70, -490, 2590, -303, 256, -91
51463, -226, 970, 76, -70, -350, 2590, -313, 268, -76
51464, -228, 971, 72, -560, 1050, 2590, -309, 265, -82
51465, -234, 969, 65, -490, 420, 2520, -312, 258, -76
51466, -236, 968, 60, 210, -1540, 2450, -306, 259, -76
51467, -235, 966, 61, 910, -4060, 2450, -309, 250, -78
51468, -230, 968, 66, 1540, -6230, 2380, -307, 252, -82
51469, -222, 971, 75, 1400, -6230, 2380, -315, 259, -78
51470, -216, 974, 81, 280, -2030, 2240, -312, 246, -76
51471, -212, 973, 78, -350, 70, 2240, -312, 261, -84
51472, -214, 970, 72, -770, 1890, 2170, -316, 246, -76
51473, -215, 970, 70, -770, 1890, 2100, -304, 252, -88
51474, -221, 971, 70, -490, 1330, 1890, -300, 256, -76
51475, -229, 971, 67, -630, 1610, 1820, -313, 262, -84
51476, -234, 970, 59, 0, -700, 1750, -315, 246, -78
51477, -223, 972, 72, 420, -2590, 1680, -310, 252, -70
51478, -212, 973, 81, -70, -980, 1610, -315, 253, -87
51479, -211, 972, 77, -1050, 2870, 1610, -303, 256, -79
51480, -213, 973, 75, -1260, 3990, 1540, -307, 256, -79
51481, -217, 972, 73, -1540, 4830, 1470, -318, 262, -75
51482, -218, 971, 76, -1540, 4970, 1400, -307, 256, -84
51483, -216, 972, 82, -1890, 5950, 1400, -312, 258, -72
51484, -236, 967, 47, -1610, 4970, 1260, -304, 256, -81
51485, -223, 972, 66, -560, 1610, 1190, -309, 255, -78
51486, -221, 972, 69, -210, 210, 1120, -309, 258, -76
51487, -220, 972, 69, -140, 140, 910, -310, 261, -76
51488, -219, 972, 73, 560, -2310, 840, -309, 259, -72
51489, -219, 972, 75, 490, -1960, 770, -318, 256, -75
51490, -221, 969, 70, 560, -1820, 770, -300, 259, -70
51491, -231, 966, 55, 1400, -4550, 700, -306, 256, -87
51492, -236, 965, 50, 2940, -9380, 700, -310, 256, -94
51493, -246, 965, 40, 7280, -23590, 560, -304, 264, -81
51494, -244, 966, 43, 9590, -31570, 560, -322, 253, -81
51495, -237, 968, 51, 11760, -38710, 490, -303, 259, -69
51496, -227, 968, 60, 13160, -43400, 490, -310, 261, -85
51497, -241, 961, 39, 14210, -46130, 420, -310, 253, -76
51498, -160, 989, 150, 12250, -39900, 560, -310, 249, -81
51499, -183, 982, 122, 7420, -23870, 490, -309, 253, -85
51500, -189, 978, 106, 4900, -15260, 350, -312, 265, -93
51501, -159, 986, 142, 1610, -4410, 140, -307, 253, -84
51502, -167, 987, 138, -12460, 42770, 0, -309, 265, -87
51503, -291, 950, -35, -11130, 37660, -70, -309, 256, -85
51504, -153, 994, 171, -8750, 29540, -210, -306, 261, -82
51505, -267, 957, 12, -15330, 50610, -350, -312, 259, -78
51506, -704, 826, -635, 11970, -39270, -490, -321, 255, -91
51507, -49, 1024, 327, -13160, 42070, -490, -309, 253, -85
51508, -475, 889, -319, -5810, 18550, -420, -309, 256, -87
51509, -208, 974, 51, 13650, -44240, -280, -309, 250, -93
51510, -12, 1035, 350, 840, -2310, -350, -304, 255, -82
51511, -278, 954, -19, -9660, 31920, -490, -310, 250, -78
51512, -124, 1002, 203, 6300, -19950, -420, -315, 262, -75
51513, -170, 988, 144, -4970, 16240, -490, -309, 255, -84
51514, -318, 941, -78, -1890, 6230, -630, -309, 267, -82
51515, -207, 979, 69, 5180, -16870, -560, -315, 252, -91
51516, -251, 956, 12, -3500, 11830, -770, -307, 264, -81
51517, -248, 958, 13, 2450, -7490, -770, -309, 259, -84
51518, -162, 987, 142, 1540, -4410, -770, -313, 259, -94
51519, -217, 971, 78, -2380, 8470, -980, -307, 258, -85
51520, -261, 959, 12, 210, -140, -980, -312, 256, -87
51521, -200, 978, 106, -980, 3850, -1050, -316, 258, -88
51522, -248, 962, 41, -630, 2520, -1120, -310, 261, -82
51523, -294, 948, -26, 3010, -8890, -980, -312, 258, -84
51524, -192, 982, 121, 9870, -31150, -840, -316, 253, -85
51525, -82, 1018, 295, -4340, 15190, -840, -309, 250, -91
51526, -256, 966, 48, 3290, -9730, -420, -316, 259, -90
51527, -206, 983, 132, 1120, -3150, -210, -313, 270, -93
51528, -208, 980, 120, -3500, 11830, 0, -310, 259, -85
51529, -248, 968, 66, -5670, 18480, 210, -319, 259, -75
51530, -273, 961, 28, -1820, 6230, 700, -306, 253, -87
51531, -257, 965, 44, 560, -1610, 980, -304, 259, -72
51532, -273, 962, 27, 2170, -6720, 1120, -309, 265, -84
51533, -238, 972, 62, 4130, -13300, 1330, -309, 255, -78
51534, -232, 973, 69, 3850, -12950, 1470, -303, 253, -81
51535, -228, 972, 56, 1680, -6020, 1610, -304, 262, -82
51536, -233, 968, 40, 2030, -7280, 1680, -309, 250, -79
51537, -235, 968, 38, 4340, -14560, 1680, -312, 256, -78
51538, -207, 975, 79, 4480, -15050, 1680, -318, 255, -90
51539, -214, 974, 74, 3010, -10080, 1610, -315, 256, -84
51540, -205, 974, 78, 2450, -8330, 1610, -310, 264, -82
51541, -172, 983, 123, 210, -840, 1540, -310, 255, -81
51542, -279, 951, -25, 1540, -5600, 1470, -306, 259, -82
51543, -182, 986, 113, 2590, -9030, 1400, -315, 256, -90
51544, -198, 979, 90, 630, -2450, 1260, -312, 265, -81
51545, -227, 968, 43, 1330, -5250, 1120, -309, 253, -75
51546, -235, 967, 37, 2870, -10360, 1050, -312, 261, -90
51547, -185, 979, 107, 2660, -9520, 770, -316, 258, -79
51548, -207, 971, 77, 980, -4130, 770, -315, 261, -79
51549, -205, 972, 67, 700, -2240, 840, -310, 261, -90
51550, -212, 970, 56, 1400, -4970, 840, -312, 264, -82
51551, -175, 980, 106, 350, -980, 700, -315, 261, -90
51552, -201, 976, 74, -2590, 9520, 630, -312, 256, -81
51553, -228, 968, 34, -1120, 4130, 350, -315, 256, -88
51554, -231, 968, 42, -560, 2030, 280, -319, 259, -84
51555, -208, 975, 71, 910, -3080, 210, -307, 265, -84
51556, -207, 976, 81, -700, 2380, 140, -312, 261, -79
51557, -216, 973, 64, -350, 1120, 140, -319, 267, -87
51558, -232, 967, 47, -630, 2310, 140, -312, 249, -85
51559, -247, 962, 32, -1400, 4830, 140, -310, 253, -84
51560, -203, 980, 95, 0, 420, 280, -312, 265, -93
51561, -231, 966, 59, 490, -1470, 350, -304, 253, -81
51562, -195, 981, 110, -560, 2240, 490, -315, 264, -90
51563, -223, 973, 64, 980, -3290, 630, -298, 255, -93
51564, -238, 970, 40, 1400, -4900, 700, -310, 258, -88
51565, -199, 980, 91, 910, -3500, 700, -303, 262, -81
51566, -215, 973, 65, 210, -1190, 700, -310, 262, -84
51567, -210, 971, 67, -280, 910, 700, -313, 264, -81
51568, -195, 976, 82, -1050, 3780, 630, -316, 262, -87
51569, -198, 977, 82, -2310, 7980, 560, -313, 262, -79
51570, -204, 973, 71, -2940, 10290, 560, -312, 264, -88
51571, -211, 973, 66, -2940, 10220, 420, -312, 262, -84
51572, -212, 973, 68, -2590, 8960, 280, -319, 259, -85
51573, -221, 970, 56, -2240, 7770, 280, -312, 264, -88
51574, -205, 975, 78, -1960, 6440, 140, -312, 256, -90
51575, -221, 970, 54, -1330, 4550, 70, -310, 258, -82
51576, -215, 971, 63, -630, 2030, 70, -313, 252, -85
51577, -212, 971, 69, 0, 280, -70, -324, 267, -81
51578, -213, 972, 69, 140, -280, -70, -313, 264, -81
51579, -215, 972, 68, 280, -770, -140, -309, 259, -87
51580, -215, 973, 70, 420, -1260, -140, -310, 268, -88
51581, -214, 973, 69, 560, -1540, -210, -310, 271, -75
51582, -214, 972, 67, 700, -2030, -210, -315, 253, -94
51583, -212, 974, 72, 700, -2100, -210, -321, 261, -75
51584, -207, 977, 80, 210, -560, -210, -310, 258, -84
51585, -207, 976, 77, -700, 2380, -280, -309, 259, -79
51586, -215, 971, 63, -1050, 3570, -280, -316, 264, -82
51587, -219, 970, 59, -630, 2170, -280, -313, 261, -82
51588, -218, 971, 64, -70, 630, -280, -310, 267, -79
51589, -218, 971, 66, 210, -210, -280, -313, 255, -75
51590, -217, 968, 65, 140, -70, -280, -318, 255, -84
51591, -202, 980, 87, 420, -1470, -350, -309, 262, -94
51592, -213, 977, 67, 560, -1540, -350, -312, 255, -90
51593, -219, 969, 65, -560, 1820, -350, -312, 265, -81
51594, -218, 970, 63, 140, -280, -280, -316, 261, -81
51595, -208, 974, 67, -700, 2800, -280, -312, 255, -91
51596, -198, 980, 92, -2240, 7630, -350, -315, 255, -85
51597, -222, 972, 55, -1260, 4410, -350, -309, 255, -84
51598, -211, 972, 72, -1260, 4480, -420, -309, 264, -91
51599, -215, 970, 66, -1190, 4550, -490, -318, 256, -88
51600, -217, 972, 69, -1190, 4410, -490, -307, 255, -91
51601, -223, 971, 60, -770, 3010, -420, -312, 259, -81
51602, -220, 974, 67, -280, 1400, -490, -316, 255, -88
51603, -219, 974, 72, -350, 1470, -490, -312, 255, -76
51604, -223, 972, 69, -490, 1750, -420, -300, 262, -82
51605, -219, 973, 71, -770, 2660, -350, -313, 252, -78
51606, -224, 970, 63, -560, 2310, -350, -312, 259, -78
51607, -226, 970, 63, -210, 910, -280, -309, 262, -90
51608, -222, 970, 68, 140, -210, -140, -315, 264, -85
51609, -221, 971, 68, 0, 280, -70, -306, 259, -87
51610, -219, 973, 69, 0, 280, -70, -313, 265, -84
51611, -218, 974, 70, -140, 560, -70, -313, 252, -85
51612, -218, 973, 65, -140, 420, -70, -312, 262, -81
51613, -221, 972, 63, 280, -630, -70, -309, 253, -84
51614, -212, 974, 73, 490, -1190, -70, -309, 267, -91
51615, -214, 973, 69, 70, -210, -70, -319, 258, -79
51616, -218, 971, 63, 210, -350, -140, -309, 256, -79
51617, -219, 971, 62, 490, -1400, -140, -313, 259, -84
51618, -216, 972, 65, 840, -2520, -140, -312, 261, -88
51619, -222, 970, 58, 1540, -4760, -140, -310, 261, -94
51620, -218, 973, 66, 1960, -6370, -140, -312, 258, -81
51621, -215, 974, 74, 1820, -5740, -140, -307, 256, -84
51622, -216, 975, 72, 1400, -4690, -210, -321, 267, -84
51623, -213, 973, 70, 840, -2800, -140, -313, 258, -88
51624, -211, 973, 71, 560, -2170, -210, -315, 264, -75
51625, -210, 974, 72, 350, -1050, -140, -319, 253, -85
51626, -214, 972, 65, 210, -630, -210, -316, 255, -85
51627, -213, 972, 64, 490, -1400, -210, -318, 265, -88
51628, -211, 972, 67, 420, -1470, -280, -315, 255, -81
51629, -213, 972, 64, 560, -1750, -350, -304, 268, -87
51630, -211, 972, 65, 840, -2380, -420, -309, 261, -90
51631, -213, 972, 65, 910, -2870, -560, -319, 258, -88
51632, -214, 973, 64, 1120, -3640, -560, -303, 255, -87
51633, -215, 973, 69, 1540, -4760, -700, -307, 262, -90
51634, -214, 973, 73, 1330, -4060, -630, -307, 259, -84
51635, -216, 973, 73, 980, -3010, -630, -315, 268, -81
51636, -217, 972, 72, 700, -2170, -560, -316, 261, -84
51637, -221, 973, 73, 210, -350, -490, -312, 255, -87
51638, -221, 973, 74, -70, 420, -420, -307, 250, -87
51639, -224, 972, 70, -210, 1050, -350, -312, 261, -82
51640, -225, 971, 68, -140, 840, -280, -303, 259, -88
51641, -224, 971, 71, -140, 840, -140, -312, 262, -76
51642, -223, 974, 70, -770, 2870, -70, -310, 256, -88
51643, -216, 976, 76, -1120, 3920, 0, -315, 262, -84
51644, -214, 975, 77, -1960, 6510, 70, -321, 256, -81
51645, -221, 972, 66, -2380, 7910, 70, -318, 262, -81
51646, -225, 970, 61, -2030, 7000, 210, -309, 265, -90
51647, -223, 971, 66, -1470, 5320, 210, -303, 261, -81
51648, -223, 972, 66, -1400, 4830, 280, -307, 255, -81
51649, -224, 971, 64, -1190, 4130, 280, -301, 258, -82
51650, -224, 971, 64, -910, 3220, 350, -315, 258, -90
51651, -226, 971, 62, -70, 420, 420, -313, 256, -84
51652, -223, 972, 63, 350, -1120, 490, -312, 253, -85
51653, -217, 973, 71, 420, -1400, 490, -310, 259, -85
51654, -209, 975, 78, -70, 210, 490, -310, 255, -76
51655, -209, 974, 77, -700, 2800, 490, -301, 255, -87
51656, -210, 975, 72, -1470, 5180, 420, -316, 264, -94
51657, -216, 973, 63, -1680, 5810, 420, -312, 256, -85
51658, -218, 971, 59, -910, 3430, 280, -310, 253, -88
51659, -215, 972, 63, -630, 2170, 210, -310, 265, -87
51660, -208, 971, 71, 140, -210, 70, -306, 259, -88
51661, -196, 974, 86, 2240, -7560, 0, -313, 262, -85
51662, -217, 968, 59, 910, -2940, -70, -300, 268, -85
51663, -198, 976, 84, 1470, -4830, -140, -316, 256, -82
51664, -215, 970, 66, 700, -2170, -280, -313, 253, -84
51665, -180, 983, 118, 700, -2240, -490, -307, 250, -87
51666, -169, 985, 131, -3710, 12040, -630, -318, 258, -85
51667, -192, 981, 98, -6160, 19950, -770, -315, 270, -84
51668, -248, 964, 3, -6020, 19670, -840, -303, 255, -96
51669, -262, 959, -16, 1260, -3990, -910, -310, 264, -85
51670, -69, 1009, 263, -12810, 42000, -1330, -306, 258, -79
51671, -473, 879, -340, -2800, 10150, -1540, -316, 267, -82
51672, 246, 1116, 688, 1190, -4410, -1540, -306, 256, -85
51673, -630, 859, -549, -19600, 66990, -2170, -312, 259, -93
51674, -561, 838, -500, 23590, -77000, -2170, -313, 253, -85
51675, 50, 1058, 427, -40110, 131670, -2940, -309, 261, -73
51676, -889, 759, -978, -17850, 58030, -3220, -312, 261, -84
51677, -166, 984, 60, 30870, -100520, -3010, -310, 258, -90
51678, 125, 1068, 508, 12460, -39900, -3570, -318, 265, -90
51679, -429, 900, -271, -1960, 7560, -4270, -310, 256, -91
51680, -142, 991, 139, 11340, -35840, -4340, -313, 262, -88
51681, -50, 1021, 292, -2870, 10500, -4830, -318, 261, -79
51682, -314, 936, -97, -6720, 23030, -5040, -310, 258, -105
51683, -251, 956, -11, 6650, -20230, -5320, -315, 255, -82
51684, -220, 968, 58, -5390, 19040, -5880, -312, 253, -99
51685, -285, 946, -46, 1330, -2870, -6020, -306, 253, -87
51686, -151, 988, 164, 3850, -10780, -6230, -310, 256, -84
51687, -183, 977, 118, -2940, 11550, -6440, -318, 253, -81
51688, -278, 951, -7, 3290, -8750, -6720, -306, 259, -85
51689, -175, 983, 142, -490, 3500, -6860, -307, 258, -90
51690, -247, 960, 25, -1470, 6370, -7070, -304, 249, -100
51691, -224, 968, 63, 2170, -5040, -7280, -306, 250, -84
51692, -178, 979, 120, 560, 350, -7420, -309, 256, -90
51693, -230, 962, 42, 1120, -1400, -7840, -307, 253, -94
51694, -191, 977, 106, 1120, -1470, -8190, -306, 264, -90
51695, -209, 968, 71, -560, 4270, -8470, -313, 253, -90
51696, -227, 965, 49, 560, 630, -8750, -304, 246, -90
51697, -199, 972, 81, 1120, -1400, -9100, -310, 256, -87
51698, -230, 964, 48, 210, 2030, -9590, -301, 253, -85
51699, -221, 969, 73, 910, -140, -9800, -300, 250, -97
51700, -222, 968, 77, 140, 2450, -10010, -309, 244, -87
51701, -244, 963, 57, 0, 2870, -10150, -304, 258, -93
51702, -242, 964, 67, 350, 1960, -10360, -307, 243, -81
51703, -252, 973, 45, 140, 2100, -10430, -301, 255, -94
51704, -255, 969, 40, 420, 490, -10500, -307, 256, -94
51705, -240, 958, 57, 630, -350, -10640, -298, 249, -84
51706, -242, 951, 64, 210, 1960, -10710, -301, 246, -90
51707, -278, 961, 89, 700, 2030, -10640, -300, 243, -85
51708, -371, 984, 50, -1890, 10500, -9940, -300, 246, -88
51709, -443, 988, -27, -420, 4060, -9170, -303, 253, -90
51710, -427, 969, 0, -70, -420, -7700, -307, 256, -88
51711, -349, 927, 19, 840, -6300, -6230, -301, 247, -88
51712, -288, 889, 85, 700, -2870, -3780, -300, 249, -85
51713, -311, 898, 95, 490, 3010, -3430, -301, 244, -88
51714, -330, 945, 94, 1610, 3290, -3570, -295, 235, -94
51715, -332, 990, 73, 1050, 4760, -3150, -298, 238, -87
51716, -317, 996, 79, -210, -280, -1680, -300, 241, -88
51717, -320, 972, 103, 0, -4200, -1120, -301, 240, -88
51718, -322, 946, 105, -910, -1120, -700, -300, 237, -90
51719, -331, 936, 119, -420, 350, -420, -292, 240, -88
51720, -342, 938, 101, -490, 3430, 280, -294, 247, -76
51721, -372, 951, 68, 140, 1680, 2590, -298, 246, -85
51722, -382, 950, 67, 350, -1400, 3850, -301, 244, -84
51723, -379, 951, 61, -70, -2100, 4970, -295, 243, -87
51724, -376, 955, 71, -490, -2030, 5740, -294, 246, -91
51725, -368, 952, 65, -630, -980, 6580, -301, 246, -87
51726, -354, 944, 65, -490, -210, 8890, -301, 246, -87
51727, -364, 942, 61, -420, 70, 10220, -297, 247, -84
51728, -376, 941, 48, -280, 0, 11480, -301, 244, -87
51729, -391, 951, 43, -490, 350, 12600, -301, 261, -96
51730, -384, 966, 37, -700, -1890, 14840, -306, 247, -87
51731, -368, 960, 42, -700, -3640, 16170, -309, 250, -90
51732, -362, 950, 48, -840, -3850, 17500, -297, 246, -85
51733, -360, 939, 51, -700, -3990, 18690, -309, 249, -85
51734, -350, 932, 52, -490, -3780, 19740, -310, 256, -87
51735, -311, 952, 60, -140, -3220, 21700, -309, 252, -82
51736, -303, 968, 65, -630, -1890, 22680, -312, 264, -81
51737, -297, 974, 59, -840, -1470, 23450, -300, 249, -87
51738, -287, 974, 63, -1120, -980, 24220, -315, 253, -85
51739, -275, 968, 64, -1400, -490, 24850, -315, 265, -84
51740, -258, 953, 67, -1610, 280, 25830, -315, 250, -76
51741, -252, 951, 67, -1470, 280, 26180, -313, 265, -79
51742, -242, 955, 66, -1120, -630, 26460, -304, 264, -84
51743, -227, 959, 68, -980, -1330, 26740, -312, 262, -75
51744, -201, 955, 78, -1050, -2380, 26810, -316, 277, -84
51745, -194, 961, 71, -630, -4270, 26740, -325, 270, -72
51746, -174, 978, 78, -490, -5950, 26390, -324, 273, -82
51747, -146, 991, 79, -350, -6930, 25970, -316, 270, -79
51748, -121, 991, 80, -700, -6720, 25410, -310, 268, -81
51749, -71, 982, 78, -910, -6160, 23800, -319, 262, -76
51750, -59, 976, 68, -980, -4270, 22820, -321, 276, -91
51751, -53, 975, 69, -1050, -2940, 21770, -328, 282, -73
51752, -50, 977, 70, -1050, -1330, 20650, -331, 270, -81
51753, -61, 981, 65, -1120, 350, 19670, -330, 271, -81
51754, -82, 990, 55, -770, -70, 17780, -324, 277, -75
51755, -86, 990, 53, -770, -630, 16940, -333, 277, -73
51756, -88, 990, 50, -770, -1400, 16170, -324, 277, -76
51757, -86, 990, 50, -630, -2100, 15470, -330, 277, -81
51758, -85, 990, 52, -630, -1960, 14000, -331, 286, -79
51759, -83, 986, 56, -630, -1470, 13440, -336, 279, -67
51760, -85, 986, 56, -630, -840, 12880, -330, 277, -76
51761, -90, 988, 55, -630, -420, 12390, -334, 276, -70
51762, -95, 990, 55, -560, -280, 11900, -337, 286, -79
51763, -93, 994, 55, -490, -1400, 10780, -339, 289, -70
51764, -88, 998, 61, -420, -1960, 10290, -340, 288, -69
51765, -93, 1004, 62, -700, -1190, 9800, -336, 286, -66
51766, -132, 1012, 60, -1470, 700, 9590, -336, 285, -72
51767, -195, 1014, 31, -2100, 490, 10640, -339, 291, -69
51768, -206, 928, 41, -1540, 1330, 11830, -340, 280, -67
51769, -159, 870, 81, 140, -3920, 12460, -336, 276, -72
51770, -130, 880, 82, 0, -2380, 12810, -337, 285, -76
51771, -131, 936, 96, 1120, -4690, 12320, -336, 288, -79
51772, -86, 1020, 122, 2310, -7840, 11340, -334, 288, -79
51773, -54, 1046, 103, 1540, -6650, 10990, -333, 285, -73
51774, -24, 1051, 113, 1470, -8400, 10500, -331, 291, -70
51775, 0, 1017, 120, 280, -6090, 9870, -333, 289, -78
51776, 7, 981, 138, -140, -4480, 8820, -334, 297, -76
51777, -11, 1036, 134, -350, 210, 6440, -340, 282, -84
51778, -49, 1055, 116, -1330, 4760, 5740, -340, 289, -75
51779, -97, 1020, 109, -910, 3570, 5250, -339, 291, -69
51780, -116, 972, 85, -420, 280, 5180, -343, 291, -81
51781, -116, 950, 93, 210, -4830, 4970, -340, 297, -69
51782, -108, 955, 95, 560, -6370, 4690, -334, 292, -79
51783, -87, 989, 89, 840, -6720, 4340, -334, 298, -72
51784, -58, 1027, 97, 840, -5880, 4060, -336, 289, -63
51785, -38, 1029, 91, 280, -2730, 3990, -345, 294, -70
51786, -67, 969, 81, -420, 1890, 3640, -343, 294, -79
51787, -89, 971, 74, -140, 1400, 3290, -345, 294, -76
51788, -94, 981, 67, 210, -560, 2800, -342, 307, -76
51789, -82, 980, 78, 630, -3290, 2380, -339, 298, -79
51790, -57, 980, 84, 1050, -5740, 1750, -342, 306, -82
51791, -9, 1022, 74, 1260, -7000, 350, -340, 289, -76
51792, 17, 1022, 79, 840, -4760, -630, -331, 295, -76
51793, 30, 1010, 71, 280, -1540, -1680, -343, 295, -78
51794, 37, 1004, 66, 70, 700, -2660, -345, 289, -72
51795, 25, 1010, 61, -1050, 6930, -4620, -339, 292, -73
51796, -32, 995, 37, -840, 7070, -5530, -351, 298, -72
51797, -46, 984, 37, -280, 5110, -6370, -340, 297, -72
51798, -54, 977, 36, -70, 3710, -7140, -334, 291, -82
51799, -54, 984, 31, 910, 0, -8050, -331, 294, -81
51800, -10, 1019, 52, 1190, -1540, -10080, -333, 283, -88
51801, -8, 1021, 46, 350, 1400, -10920, -331, 292, -82
51802, -26, 1011, 53, -280, 4130, -11550, -345, 297, -81
51803, -66, 995, 47, -1260, 8470, -11830, -334, 279, -78
51804, -117, 980, 49, -1260, 10080, -11830, -343, 291, -78
51805, -208, 983, 58, -700, 10360, -10780, -339, 288, -73
51806, -249, 981, 49, -490, 9030, -9940, -342, 297, -78
51807, -276, 984, 51, 140, 4830, -8890, -336, 289, -75
51808, -282, 992, 49, 420, 1050, -7770, -340, 285, -70
51809, -270, 985, 56, 1330, -7560, -5670, -337, 298, -73
51810, -202, 993, 71, -140, -4340, -4480, -331, 294, -69
51811, -180, 987, 92, 980, -8540, -4060, -330, 291, -75
51812, -158, 976, 94, -70, -4130, -3360, -333, 297, -75
51813, -120, 967, 101, 1190, -5320, -3290, -340, 283, -85
51814, -108, 1005, 77, -770, 5600, -2660, -339, 288, -81
51815, -151, 1002, 82, -1190, 7140, -2450, -339, 279, -76
51816, -168, 974, 71, -770, 5110, -2240, -334, 276, -85
51817, -187, 993, 74, -1120, 4550, -1960, -324, 282, -73
51818, -178, 973, 60, -350, 560, -1890, -330, 292, -76
51819, -154, 976, 53, 140, -2590, -1400, -327, 285, -79
51820, -144, 993, 89, 630, -4200, -1400, -333, 285, -76
51821, -150, 992, 66, -70, -1820, -1190, -337, 283, -82
51822, -140, 968, 68, 490, -2730, -1120, -331, 285, -75
51823, -134, 998, 66, -420, 1260, -350, -337, 285, -87
51824, -162, 998, 77, -910, 3220, 70, -336, 283, -78
51825, -178, 989, 54, -910, 3150, 560, -336, 286, -84
51826, -171, 984, 79, -140, 630, 840, -339, 289, -84
51827, -161, 976, 69, -420, 1400, 1120, -342, 285, -75
51828, -145, 964, 67, 490, -2030, 1260, -340, 279, -84
51829, -122, 980, 96, 630, -2730, 1260, -331, 292, -75
51830, -104, 987, 81, 420, -2170, 1190, -337, 283, -79
51831, -96, 992, 103, 350, -1960, 980, -340, 286, -73
51832, -88, 987, 95, 70, -980, 700, -330, 289, -81
51833, -97, 988, 100, 140, -210, 0, -337, 297, -75
51834, -93, 985, 99, -280, 1330, -210, -331, 291, -75
51835, -96, 978, 103, 0, 840, -490, -333, 286, -75
51836, -104, 980, 89, -280, 1820, -700, -331, 277, -72
51837, -110, 998, 80, -70, 910, -1330, -330, 292, -72
51838, -108, 997, 82, 210, -350, -1680, -337, 291, -75
51839, -104, 991, 72, -140, 490, -1820, -336, 289, -78
51840, -107, 990, 77, -70, 210, -2030, -330, 283, -75
51841, -114, 985, 64, -350, 1540, -2100, -336, 292, -76
51842, -130, 986, 59, -210, 2030, -2310, -318, 286, -75
51843, -140, 990, 64, 0, 1680, -2240, -339, 282, -69
51844, -149, 985, 53, -210, 2030, -2100, -334, 289, -79
51845, -155, 980, 60, 0, 980, -2030, -333, 291, -72
51846, -148, 980, 55, 140, 140, -1890, -327, 285, -73
51847, -125, 987, 67, 350, -910, -1960, -339, 282, -76
51848, -116, 989, 78, 350, -1050, -2100, -337, 283, -78
51849, -105, 989, 75, 420, -910, -2380, -330, 279, -69
51850, -95, 992, 82, 420, -700, -2660, -334, 289, -70
51851, -94, 996, 85, 0, 630, -3360, -334, 292, -78
51852, -107, 996, 79, -210, 1610, -3570, -331, 292, -78
51853, -127, 993, 82, -420, 2520, -3710, -325, 276, -70
51854, -142, 984, 76, -350, 2730, -3710, -337, 285, -79
51855, -156, 977, 79, -350, 2870, -3570, -333, 288, -79
51856, -183, 980, 73, -210, 2520, -2940, -330, 285, -82
51857, -192, 982, 69, -70, 1820, -2520, -336, 282, -72
51858, -192, 982, 70, 0, 1400, -2100, -331, 288, -78
51859, -185, 980, 71, 140, 420, -1610, -333, 291, -76
51860, -177, 980, 73, 70, 70, -1190, -337, 283, -69
51861, -152, 974, 76, 350, -1120, -840, -331, 291, -72
51862, -131, 980, 78, 700, -2030, -910, -330, 283, -76
51863, -110, 992, 85, 700, -2100, -1120, -333, 288, -75
51864, -93, 997, 86, 630, -1960, -1470, -334, 286, -70
51865, -85, 1000, 82, 350, -630, -2310, -324, 285, -70
51866, -88, 994, 89, 70, 490, -2800, -330, 285, -78
51867, -100, 986, 84, -210, 2030, -3080, -336, 279, -79
51868, -119, 982, 86, -210, 2800, -3290, -330, 276, -76
51869, -138, 980, 77, -350, 3640, -3290, -339, 285, -81
51870, -176, 983, 64, -210, 3360, -3010, -331, 279, -79
51871, -186, 988, 66, -140, 2520, -2730, -331, 283, -79
51872, -194, 989, 60, -140, 2100, -2380, -333, 279, -73
51873, -204, 985, 63, -210, 1610, -1820, -334, 280, -85
51874, -208, 976, 58, -70, 980, -700, -324, 282, -78
51875, -203, 972, 62, 210, -280, -70, -337, 280, -70
51876, -197, 976, 67, 350, -770, 490, -328, 285, -75
51877, -188, 981, 65, 280, -1120, 840, -327, 277, -76
51878, -182, 986, 69, 210, -1120, 1260, -337, 280, -81
51879, -160, 989, 73, 140, -1400, 1890, -333, 285, -75
51880, -149, 988, 71, 140, -1540, 1960, -336, 279, -75
51881, -143, 987, 74, 0, -1470, 2030, -330, 270, -88
51882, -136, 985, 74, 70, -1540, 1960, -333, 288, -81
51883, -128, 985, 75, 70, -980, 1890, -331, 280, -73
51884, -124, 986, 71, -140, 560, 1750, -334, 282, -79
51885, -128, 988, 69, -210, 700, 1610, -340, 288, -76
51886, -130, 988, 67, -210, 560, 1470, -327, 288, -72
51887, -128, 988, 69, -70, -70, 1260, -336, 277, -70
51888, -121, 986, 72, 140, -910, 770, -331, 288, -81
51889, -112, 986, 76, 140, -700, 560, -334, 289, -75
51890, -114, 988, 77, 70, 0, 350, -328, 282, -85
51891, -122, 988, 79, 0, 700, 140, -336, 291, -73
51892, -133, 986, 78, -70, 1190, 70, -327, 291, -69
51893, -162, 981, 80, -210, 1470, 350, -322, 285, -79
51894, -175, 981, 80, -140, 1120, 560, -328, 279, -73
51895, -179, 982, 80, 0, 350, 770, -336, 280, -76
51896, -176, 983, 80, 70, -280, 1120, -334, 289, -82
51897, -170, 984, 79, 140, -770, 1470, -328, 283, -76
51898, -161, 986, 76, -70, -280, 1960, -337, 291, -78
51899, -159, 986, 74, -140, -70, 2240, -330, 288, -79
51900, -155, 984, 73, -140, 0, 2450, -336, 285, -90
51901, -153, 984, 74, -140, -70, 2590, -327, 279, -78
51902, -149, 982, 72, 140, -910, 2730, -336, 288, -82
51903, -136, 983, 71, 140, -1050, 2730, -339, 282, -78
51904, -129, 987, 71, 210, -1120, 2660, -336, 297, -72
51905, -123, 990, 72, 70, -1050, 2590, -331, 280, -76
51906, -122, 992, 72, -140, -630, 2520, -330, 286, -82
51907, -137, 987, 73, -350, 700, 2520, -336, 288, -81
51908, -149, 981, 74, -420, 1540, 2730, -333, 288, -79
51909, -162, 977, 73, -350, 1820, 3010, -336, 286, -79
51910, -172, 978, 71, -140, 1400, 3220, -339, 276, -76
51911, -177, 984, 70, 0, 420, 3570, -339, 286, -78
51912, -151, 990, 71, 280, -2310, 3920, -334, 291, -81
51913, -125, 989, 76, 280, -3150, 3920, -325, 277, -79
51914, -106, 991, 79, 70, -2380, 3850, -342, 283, -72
51915, -101, 989, 76, -210, -1190, 3710, -324, 280, -78
51916, -100, 990, 73, -420, 350, 3360, -333, 286, -78
51917, -109, 989, 64, -490, 910, 3220, -331, 282, -81
51918, -115, 988, 62, -420, 490, 2940, -345, 286, -85
51919, -116, 986, 65, -350, 350, 2730, -334, 286, -72
51920, -118, 986, 61, -210, 70, 2520, -334, 285, -73
51921, -121, 986, 73, 0, -280, 2450, -336, 282, -78
51922, -127, 981, 82, -70, 560, 2520, -342, 289, -72
51923, -135, 979, 82, 70, 770, 2520, -333, 288, -75
51924, -140, 984, 84, 210, 630, 2590, -337, 288, -76
51925, -138, 992, 85, 140, 0, 2660, -330, 297, -66
51926, -120, 996, 82, 0, -2170, 2520, -339, 282, -85
51927, -105, 995, 85, -140, -2520, 2380, -340, 285, -73
51928, -92, 991, 81, -280, -1750, 2170, -336, 283, -76
51929, -87, 987, 78, -420, -420, 1960, -342, 292, -79
51930, -87, 984, 73, -210, 770, 1470, -328, 280, -82
51931, -95, 982, 71, 0, 630, 1120, -336, 285, -69
51932, -96, 984, 75, 350, -280, 700, -333, 285, -85
51933, -90, 989, 78, 630, -1050, 280, -340, 297, -72
51934, -82, 994, 82, 560, -1260, -140, -337, 282, -78
51935, -72, 998, 87, 280, -910, -980, -340, 285, -70
51936, -69, 997, 86, 70, -350, -1400, -328, 286, -78
51937, -70, 995, 86, -70, 280, -1960, -336, 292, -85
51938, -73, 993, 83, -140, 910, -2450, -337, 288, -75
51939, -78, 991, 78, -140, 1330, -2940, -339, 294, -75
51940, -83, 989, 67, 70, 1120, -3850, -336, 279, -84
51941, -82, 993, 58, 0, 700, -4340, -336, 289, -76
51942, -81, 997, 58, 0, 350, -4760, -337, 283, -87
51943, -79, 995, 60, 0, 490, -5250, -336, 288, -76
51944, -83, 983, 67, 210, 910, -6230, -339, 288, -75
51945, -86, 983, 68, 420, 1050, -6650, -336, 289, -84
51946, -89, 987, 67, 560, 1050, -7140, -327, 285, -82
51947, -87, 993, 67, 630, 630, -7560, -328, 286, -79
51948, -85, 1001, 70, 350, 560, -8050, -328, 283, -81
51949, -83, 996, 76, 0, 1190, -9100, -337, 283, -85
51950, -85, 986, 80, 70, 1330, -9520, -327, 282, -75
51951, -89, 977, 83, 140, 2030, -10010, -337, 282, -85
51952, -95, 975, 83, 490, 1610, -10500, -333, 280, -75
51953, -96, 979, 79, 560, 1750, -10990, -337, 282, -85
51954, -93, 996, 74, 700, 700, -12040, -330, 277, -72
51955, -89, 999, 86, 490, 840, -12600, -333, 280, -82
51956, -86, 994, 82, 490, 630, -13230, -322, 285, -81
51957, -87, 990, 90, 210, 1400, -13720, -330, 279, -82
51958, -92, 976, 89, 350, 2310, -14910, -330, 273, -87
51959, -96, 978, 83, 630, 1960, -15610, -321, 280, -75
51960, -99, 983, 84, 700, 2240, -16170, -328, 286, -85
51961, -101, 986, 78, 910, 1680, -16870, -322, 279, -75
51962, -100, 989, 81, 700, 1820, -17500, -330, 265, -76
51963, -99, 989, 77, 560, 2170, -18830, -325, 282, -75
51964, -99, 983, 76, 630, 2030, -19530, -321, 279, -78
51965, -102, 979, 76, 560, 2590, -20230, -310, 270, -88
51966, -105, 976, 75, 840, 2380, -21000, -312, 277, -87
51967, -106, 979, 72, 770, 2730, -21700, -325, 270, -84
51968, -110, 981, 69, 910, 2660, -23240, -318, 261, -90
51969, -111, 981, 69, 980, 2380, -24080, -313, 271, -79
51970, -111, 981, 68, 910, 2660, -24850, -313, 262, -73
51971, -112, 979, 69, 980, 2590, -25690, -319, 259, -75
51972, -116, 972, 69, 980, 2870, -27440, -315, 264, -81
51973, -118, 970, 70, 1050, 3220, -28350, -321, 264, -88
51974, -120, 971, 71, 1120, 3080, -29330, -309, 265, -82
51975, -121, 970, 69, 1190, 3150, -30240, -319, 268, -82
51976, -122, 970, 71, 1260, 3290, -31220, -312, 256, -85
51977, -127, 969, 71, 1330, 3430, -33250, -307, 258, -82
51978, -128, 966, 72, 1120, 3780, -34300, -318, 249, -85
51979, -78, 910, 50, 1890, 2590, -35490, -298, 252, -85
51980, -75, 887, 242, 2380, 9450, -35700, -307, 256, -85
51981, 5, 696, 155, 1820, 20580, -35910, -303, 247, -82
51982, -427, 1147, -80, 420, 57470, -27300, -297, 244, -84
51983, -750, 1282, 356, -7420, 79590, -28630, -303, 244, -94
51984, -1076, 1007, -395, -15470, 79240, -26040, -303, 241, -81
51985, -1174, 932, -107, 630, -6300, -22050, -306, 240, -82
51986, -248, 694, 563, 3990, -15190, -13650, -298, 228, -81
51987, -454, 650, -21, -4900, 31080, -11480, -303, 237, -78
51988, -644, 955, 20, 7280, -8190, -10570, -306, 235, -87
51989, -510, 1150, -93, 6440, -21560, -8470, -304, 238, -78
51990, -391, 1161, 52, 5670, -33390, -7700, -300, 235, -85
51991, -379, 979, 106, -2730, -16240, -5250, -301, 234, -84
51992, -525, 923, -93, -4130, -14910, -2730, -295, 241, -90
51993, -622, 886, 35, -490, -28490, -630, -303, 237, -88
51994, -652, 800, -38, 210, -31990, 1610, -294, 234, -81
51995, -597, 837, 14, 6090, -51870, 3990, -291, 232, -85
51996, -380, 998, 4, 6650, -53760, 5040, -298, 240, -87
51997, -311, 996, -10, 5110, -51380, 6580, -292, 244, -93
51998, -261, 1000, 43, 4620, -50680, 7700, -300, 241, -105
51999, -283, 1011, 32, 840, -38360, 8960, -289, 243, -108
52000, -375, 945, 14, 280, -35490, 10990, -297, 246, -114
52001, -378, 905, 60, 1470, -37520, 11760, -295, 240, -103
52002, -392, 895, 46, 1610, -35910, 12600, -300, 247, -100
52003, -389, 894, 38, 3430, -38990, 13370, -303, 246, -105
52004, -323, 914, 58, 5110, -41790, 14210, -292, 243, -111
52005, -248, 984, 75, 3290, -31290, 15330, -304, 246, -114
52006, -244, 1009, 67, 2800, -28770, 15820, -297, 249, -112
52007, -238, 1012, 85, 1890, -25690, 16170, -297, 250, -120
52008, -240, 977, 85, 1260, -23100, 16520, -300, 244, -117
52009, -247, 953, 95, 1190, -21490, 16800, -298, 250, -109
52010, -305, 922, 75, 1890, -24150, 16800, -307, 256, -117
52011, -297, 925, 98, 3500, -29820, 16800, -303, 246, -112
52012, -275, 943, 106, 3850, -31780, 16870, -300, 256, -124
52013, -269, 962, 96, 3920, -33950, 16940, -298, 256, -120
52014, -255, 984, 111, 3570, -38780, 16800, -306, 253, -117
52015, -274, 972, 84, 3710, -43540, 16590, -298, 255, -123
52016, -267, 960, 99, 4480, -50820, 16450, -315, 259, -127
52017, -273, 949, 111, 4480, -55860, 16310, -304, 258, -132
52018, -303, 937, 89, 5040, -63210, 16380, -307, 259, -124
52019, -256, 959, 125, 7420, -77770, 16170, -309, 259, -130
52020, -250, 960, 98, 7070, -79100, 16030, -309, 261, -133
52021, -230, 966, 95, 8120, -84770, 15960, -310, 267, -139
52022, -189, 972, 123, 8540, -87360, 16170, -312, 259, -147
52023, -192, 978, 135, 7140, -81830, 16730, -312, 268, -147
52024, -257, 965, 60, 7630, -86030, 17080, -306, 265, -153
52025, -230, 966, 87, 9170, -92960, 17290, -313, 276, -166
52026, -198, 964, 94, 8750, -92610, 17500, -313, 265, -166
52027, -187, 961, 80, 9030, -93170, 17500, -318, 270, -168
52028, -129, 968, 105, 8750, -87640, 17220, -313, 277, -178
52029, -124, 951, 47, 9380, -87710, 16800, -313, 271, -183
52030, -70, 960, 92, 10710, -89040, 16520, -325, 273, -189
52031, -35, 977, 98, 9450, -82040, 15820, -328, 282, -183
52032, -22, 983, 64, 9240, -77280, 15120, -324, 268, -189
52033, 65, 1033, 103, 6790, -57750, 13370, -330, 276, -187
52034, 43, 1023, 69, 5390, -46340, 12530, -321, 285, -195
52035, 25, 1006, 82, 5180, -38710, 11970, -324, 273, -189
52036, 17, 985, 89, 4830, -30800, 11410, -325, 279, -202
52037, -3, 962, 83, 5110, -17990, 10080, -321, 283, -198
52038, -1, 966, 97, 4200, -9030, 9310, -328, 279, -196
52039, 7, 985, 93, 4340, -2800, 8260, -331, 286, -195
52040, 22, 1007, 107, 3290, 6300, 7490, -336, 274, -193
52041, 9, 1017, 98, 1960, 14140, 6860, -321, 283, -186
52042, 21, 1008, 168, 1470, 24920, 6090, -324, 279, -193
52043, -97, 1001, 74, -2240, 36960, 5530, -331, 270, -181
52044, -154, 992, 57, 1260, 25200, 4970, -330, 286, -189
52045, -45, 997, 131, 2030, 22260, 4270, -331, 286, -186
52046, -25, 979, 155, -1540, 36260, 3640, -322, 280, -187
52047, 72, 956, 233, 1190, 42070, 2520, -324, 285, -181
52048, 1, 967, 110, -3640, 63910, 2520, -331, 279, -177
52049, -106, 966, 123, -840, 57680, 2170, -325, 291, -168
52050, -54, 1000, 116, 350, 55720, 2170, -327, 282, -175
52051, -85, 1019, 45, -3640, 67970, 1260, -334, 285, -162
52052, -128, 1026, 139, -1890, 60620, 840, -339, 283, -171
52053, -96, 1008, 131, -3780, 66430, 560, -333, 285, -165
52054, -159, 978, 95, -5320, 70350, 630, -328, 274, -160
52055, -175, 950, 84, -2520, 59710, 770, -333, 280, -151
52056, -211, 940, 122, -2450, 57540, 1260, -324, 285, -151
52057, -245, 951, 78, -1330, 51170, 1470, -333, 285, -144
52058, -209, 993, 128, 700, 41650, 1540, -319, 279, -156
52059, -192, 1009, 137, -1190, 44940, 1750, -316, 282, -142
52060, -221, 1001, 108, -1400, 41860, 1890, -324, 289, -141
52061, -250, 993, 130, -1400, 32060, 2730, -327, 274, -138
52062, -298, 967, 94, -1610, 26110, 3360, -331, 280, -139
52063, -313, 949, 116, 560, 12810, 3990, -327, 285, -142
52064, -297, 942, 140, 1400, 4410, 4760, -325, 285, -144
52065, -242, 966, 137, 3780, -10500, 5670, -334, 285, -141
52066, -189, 986, 156, 3500, -11480, 6090, -325, 280, -145
52067, -160, 993, 140, 3290, -12040, 6370, -331, 288, -138
52068, -124, 1001, 147, 3500, -13160, 6510, -325, 276, -147
52069, -101, 1008, 169, 2590, -9940, 6510, -331, 279, -144
52070, -93, 972, 151, 2520, -7350, 6160, -325, 289, -142
52071, -67, 967, 167, 2380, -5180, 5810, -333, 291, -145
52072, -69, 966, 155, 2030, -1890, 5460, -321, 289, -142
52073, -66, 973, 149, 2590, -1750, 5040, -336, 285, -135
52074, -44, 981, 166, 2870, -560, 4550, -330, 283, -145
52075, -33, 989, 171, 1890, 6790, 3570, -330, 282, -138
52076, -31, 992, 180, 1540, 9660, 3010, -334, 291, -138
52077, -38, 992, 192, 910, 13370, 2450, -331, 288, -133
52078, -65, 988, 178, 70, 17080, 2030, -325, 286, -148
52079, -81, 980, 197, 280, 16940, 1120, -325, 291, -136
52080, -101, 970, 188, 210, 16660, 560, -327, 285, -142
52081, -102, 965, 196, 980, 12880, 70, -327, 286, -126
52082, -93, 969, 216, 1050, 10920, -350, -333, 282, -138
52083, -102, 964, 212, 770, 10010, -770, -327, 291, -138
52084, -99, 963, 231, 1330, 4690, -1540, -336, 274, -130
52085, -104, 960, 238, 1190, 4130, -1890, -327, 286, -127
52086, -112, 956, 240, 980, 3220, -2310, -325, 283, -133
52087, -116, 945, 253, 1050, 1750, -2590, -340, 288, -139
52088, -128, 920, 253, 840, 910, -2870, -322, 276, -133
52089, -134, 889, 270, 1960, -6300, -3290, -327, 283, -130
52090, -133, 888, 275, 2170, -8190, -3500, -330, 291, -135
52091, -128, 901, 272, 2660, -9870, -3570, -330, 276, -139
52092, -117, 928, 281, 2870, -10920, -3710, -319, 292, -133
52093, -123, 1003, 254, 1750, -8330, -3780, -331, 286, -139
52094, -134, 1055, 230, 1260, -7770, -3850, -333, 282, -136
52095, -141, 1089, 200, 140, -6230, -3710, -334, 282, -132
52096, -167, 1104, 145, -980, -5320, -3290, -330, 288, -148
52097, -176, 1125, 117, -700, -8890, -2730, -324, 279, -130
52098, -219, 1167, 114, -2450, -6300, -1890, -328, 285, -135
52099, -247, 1155, 109, -1610, -9730, -1400, -324, 285, -136
52100, -261, 1095, 123, -1610, -10990, -840, -333, 291, -141
52101, -274, 975, 103, -770, -15190, -140, -331, 283, -133
52102, -247, 859, 116, 1050, -22960, 490, -330, 288, -144
52103, -185, 778, 134, 1750, -25900, 1190, -325, 279, -136
52104, -189, 832, 119, 2030, -26950, 1330, -330, 283, -142
52105, -185, 896, 113, 2030, -28210, 1470, -333, 286, -148
52106, -161, 958, 126, 1960, -29750, 1540, -319, 280, -147
52107, -112, 998, 162, -70, -26320, 1470, -333, 285, -144
52108, -122, 977, 181, -1470, -22610, 1400, -328, 288, -150
52109, -161, 931, 183, -1820, -21910, 1330, -330, 282, -156
52110, -209, 889, 176, -980, -25130, 1260, -328, 280, -151
52111, -238, 848, 176, 840, -32060, 1400, -328, 280, -153
52112, -268, 813, 174, 5600, -46550, 1470, -333, 283, -151
52113, -283, 854, 160, 8190, -54040, 1400, -333, 289, -162
52114, -290, 900, 144, 10430, -60130, 1400, -336, 288, -157
52115, -262, 926, 114, 12250, -65660, 1400, -331, 285, -165
52116, -173, 950, 146, 13720, -60270, 1470, -328, 288, -156
52117, -58, 1080, 120, 9940, -49280, 1680, -336, 285, -159
52118, -52, 1119, 99, 7910, -39200, 2450, -327, 289, -174
52119, -57, 1105, 97, 5950, -30870, 3500, -333, 282, -169
52120, -82, 1060, 133, 4410, -23450, 4410, -339, 283, -169
52121, -208, 908, 164, 1680, -8680, 5250, -336, 291, -172
52122, -279, 858, 151, 1960, -7910, 5530, -328, 286, -171
52123, -332, 851, 126, 4270, -15120, 6090, -336, 283, -166
52124, -340, 920, 85, 7560, -26600, 7070, -334, 294, -163
52125, -268, 1070, 58, 11550, -40390, 8260, -331, 285, -174
52126, -114, 1420, -29, 11900, -40320, 11200, -331, 285, -172
52127, -70, 1450, -3, 10500, -34020, 12530, -342, 298, -178
52128, -101, 1347, 35, 6440, -17990, 13370, -342, 292, -171
52129, -203, 1147, 44, 3080, -3710, 13370, -345, 303, -177
52130, -265, 953, 2, 3360, -1680, 13440, -343, 300, -172
52131, -223, 817, 6, 4200, -4900, 14210, -325, 297, -168
52132, -152, 787, 15, 5880, -10570, 15260, -342, 298, -172
52133, -77, 829, 50, 6790, -12250, 16100, -348, 304, -175
52134, -90, 930, 45, 5530, -6370, 16800, -337, 301, -168
52135, -190, 1096, -17, 6300, -8960, 17780, -343, 306, -172
52136, -154, 1100, -9, 7140, -12740, 17920, -334, 303, -175
52137, -70, 1085, 32, 7210, -12670, 17920, -345, 303, -163
52138, -20, 1056, 57, 5250, -5040, 17780, -339, 303, -166
52139, -14, 1013, 39, 3920, 1260, 17640, -343, 306, -175
52140, -7, 889, 57, 3080, 6230, 17360, -345, 313, -163
52141, 6, 842, 69, 3010, 7770, 17080, -342, 307, -171
52142, 16, 830, 80, 2870, 9100, 16730, -355, 312, -169
52143, 26, 860, 89, 2730, 10710, 16170, -339, 315, -163
52144, 23, 913, 92, 1960, 14420, 14910, -354, 321, -165
52145, 49, 992, 103, 1330, 16660, 14210, -354, 316, -160
52146, 56, 1011, 106, 560, 20370, 13580, -352, 310, -171
52147, 46, 1043, 106, 140, 22750, 13020, -352, 306, -160
52148, 21, 1054, 104, -140, 24150, 12740, -351, 316, -162
52149, -16, 1036, 86, 1050, 20090, 12250, -354, 319, -159
52150, -17, 1043, 66, 1820, 17150, 11830, -351, 319, -151
52151, -3, 1075, 34, 2240, 14910, 11270, -352, 321, -156
52152, 23, 1125, 27, 2170, 14560, 10500, -355, 313, -159
52153, 53, 1152, 23, 840, 18620, 9730, -358, 321, -151
52154, 98, 1120, 53, -4060, 35560, 7840, -352, 318, -156
52155, 73, 1057, 44, -6650, 43890, 7000, -361, 330, -145
52156, 40, 970, 44, -8470, 48230, 6580, -345, 321, -157
52157, 38, 886, 65, -8750, 47530, 6440, -355, 328, -151
52158, 29, 826, 91, -9940, 45920, 6720, -352, 331, -142
52159, 0, 803, 128, -9730, 42210, 7000, -354, 328, -151
52160, -26, 836, 123, -9730, 38500, 7280, -360, 313, -144
52161, -58, 915, 125, -9100, 31990, 7490, -360, 319, -133
52162, -85, 1034, 126, -8680, 26250, 7420, -358, 313, -142
52163, -109, 1182, 120, -7700, 16870, 6860, -355, 327, -142
52164, -112, 1271, 108, -6860, 13090, 6440, -360, 327, -138
52165, -152, 1316, 43, -6230, 10640, 6300, -352, 319, -133
52166, -152, 1227, -13, -3290, 490, 6580, -355, 322, -141
52167, -46, 1057, 42, 350, -10640, 6930, -361, 328, -138
52168, 0, 862, 28, 1120, -6790, 7350, -357, 319, -133
52169, -13, 861, 10, 3010, -10290, 7630, -358, 325, -138
52170, 15, 874, 52, 3780, -11060, 7630, -354, 319, -127
52171, 29, 878, 75, 2450, -4760, 7490, -363, 322, -136
52172, 18, 915, 117, -70, 7840, 6860, -360, 319, -135
52173, -29, 907, 103, -1120, 11760, 6790, -361, 319, -135
52174, -60, 869, 119, -980, 9800, 7070, -355, 328, -139
52175, -72, 806, 145, -560, 5810, 7560, -366, 325, -130
52176, -102, 764, 161, -280, 910, 8050, -363, 322, -132
52177, -153, 745, 184, 2380, -17430, 9030, -363, 334, -132
52178, -167, 770, 174, 3850, -28210, 9170, -358, 327, -135
52179, -171, 823, 187, 5040, -38080, 9030, -364, 334, -132
52180, -155, 897, 165, 5950, -47460, 8750, -361, 325, -136
52181, -102, 986, 168, 6720, -55720, 8470, -361, 327, -138
52182, 66, 1266, 124, 4410, -57470, 8190, -367, 327, -147
52183, 159, 1368, 75, 1960, -52640, 8610, -370, 325, -142
52184, 226, 1394, 133, -1820, -41930, 8750, -360, 328, -141
52185, 207, 1342, 145, -8050, -21910, 8400, -369, 324, -136
52186, -18, 1077, 192, -15050, 1120, 5880, -370, 333, -138
52187, -96, 871, 164, -15190, 210, 4480, -358, 330, -141
52188, -70, 699, 178, -12180, -11410, 3360, -363, 325, -157
52189, -16, 592, 196, -10640, -18970, 2730, -369, 327, -145
52190, -7, 585, 173, -8190, -28980, 2380, -367, 330, -147
52191, 13, 932, 278, -1540, -48510, 1330, -370, 324, -162
52192, -102, 1145, 236, -210, -49420, 420, -376, 319, -153
52193, -241, 1320, 98, 4690, -63070, -210, -372, 328, -154
52194, -194, 1401, -17, 11970, -87500, -210, -381, 325, -157
52195, 58, 1265, 51, 15960, -100380, -140, -378, 322, -165
52196, 494, 899, 241, 8260, -51940, -2520, -370, 322, -169
52197, 333, 943, 170, -2030, -4550, -4480, -372, 321, -174
52198, 28, 978, 16, -6300, 17010, -5950, -372, 325, -171
52199, -71, 899, -3, -3710, 10430, -6300, -366, 321, -183
52200, 176, 582, 193, -5670, 21210, -5880, -370, 321, -169
52201, 162, 574, 204, -7070, 29750, -5670, -370, 321, -168
52202, 30, 716, 157, -8400, 34510, -4900, -381, 327, -171
52203, -133, 858, 107, -7000, 25830, -3780, -375, 319, -166
52204, -160, 907, 164, -3150, 7420, -2940, -366, 319, -166
52205, -96, 970, 410, -910, 2730, -4270, -378, 328, -166
52206, -322, 1259, 296, 770, 1610, -5180, -369, 322, -159
52207, -586, 1408, -1, 7770, -25970, -4340, -370, 316, -168
52208, -520, 1211, -108, 20440, -77910, -2380, -367, 327, -171
52209, -31, 903, 82, 30170, -112700, -1400, -364, 321, -163
52210, 456, 1088, 213, 11830, -27580, -4130, -376, 321, -168
52211, 177, 1418, -47, 4130, 6370, -4830, -370, 324, -165
52212, 21, 1561, -158, 3080, 10640, -3430, -375, 318, -166
52213, 68, 1435, -54, 1400, 13580, -1680, -361, 325, -165
52214, 246, 903, 225, -7980, 53130, -2100, -382, 319, -172
52215, 79, 859, 166, -15260, 83370, -3220, -364, 318, -177
52216, -216, 896, -24, -15330, 80780, -3010, -364, 328, -175
52217, -296, 862, -89, -7700, 44730, -980, -373, 321, -169
52218, -112, 746, 89, -980, 11270, 1050, -370, 321, -174
52219, 43, 758, 199, -3220, 10220, 1960, -366, 313, -169
52220, -46, 1012, 159, -4620, 12180, 1680, -363, 327, -160
52221, -168, 1191, 42, -5810, 9100, 1890, -375, 315, -166
52222, -127, 1244, 40, -2380, -10570, 2450, -372, 313, -166
52223, 66, 1240, 161, -2240, -1190, 2170, -372, 331, -171
52224, 150, 1108, 154, -11690, 12740, 1050, -370, 321, -169
52225, 53, 1049, 123, -14910, 22120, -70, -363, 324, -180
52226, -9, 1019, 94, -14630, 18200, -630, -369, 324, -159
52227, -19, 906, 157, -14420, 12600, -910, -367, 315, -177
52228, -84, 716, 254, -9450, -6020, -1120, -367, 322, -171
52229, -204, 937, 232, -5600, -17360, -1400, -372, 319, -178
52230, -383, 1182, 52, -560, -36820, -840, -364, 319, -171
52231, -344, 1252, -60, 9870, -77350, 280, -369, 325, -183
52232, -74, 1103, 79, 14560, -97020, 840, -367, 328, -180
52233, 363, 1004, 174, 6160, -52780, -2520, -370, 319, -183
52234, 357, 1237, 83, -2940, -10920, -4620, -373, 318, -192
52235, 181, 1363, -55, -11340, 22610, -5460, -361, 322, -174
52236, 97, 1247, -136, -12250, 26600, -4900, -372, 318, -184
52237, 194, 1062, 44, -18480, 50680, -4200, -375, 315, -175
52238, 171, 813, 168, -23240, 70490, -4690, -370, 316, -180
52239, 4, 722, 152, -25340, 78330, -4970, -370, 324, -180
52240, -158, 598, 157, -23660, 69790, -4620, -363, 321, -181
52241, -263, 500, 208, -18550, 47110, -4060, -367, 315, -178
52242, -350, 562, 265, -4550, -9660, -2730, -367, 322, -180
52243, -358, 779, 220, 3500, -41300, -1960, -364, 321, -178
52244, -354, 1103, 125, 9170, -67410, -1190, -367, 330, -193
52245, -181, 1373, 101, 15400, -92750, -840, -369, 328, -183
52246, 82, 1396, 219, 12880, -84350, -1260, -372, 318, -192
52247, 300, 1355, 235, -1120, -17640, -3500, -375, 328, -196
52248, 92, 1312, 53, -10780, 18900, -3010, -366, 334, -187
52249, -101, 1037, -61, -9100, 12530, -1610, -364, 322, -196
52250, -70, 848, 99, -4340, -2450, -70, -364, 322, -192
52251, -11, 772, 276, -8260, 19880, 420, -363, 331, -189
52252, -281, 746, 99, -5110, 10150, 1120, -367, 327, -195
52253, -300, 715, 112, 1470, -14000, 2450, -370, 334, -196
52254, -246, 671, 142, 5670, -30450, 3920, -375, 328, -192
52255, -184, 723, 133, 9870, -44310, 4760, -372, 339, -192
52256, -28, 1105, 111, 11830, -47530, 5460, -360, 331, -195
52257, 13, 1332, 55, 9240, -36400, 6020, -373, 336, -193
52258, 90, 1494, 102, 9590, -31430, 6300, -370, 333, -202
52259, 25, 1499, 176, 3290, -5600, 6720, -379, 327, -192
52260, -197, 1299, 25, 1470, 2800, 7350, -375, 334, -201
52261, -181, 680, 134, 12180, -36400, 9100, -373, 334, -193
52262, -111, 404, 156, 10570, -31150, 9170, -384, 331, -189
52263, -90, 285, 121, 12810, -35700, 8540, -367, 333, -189
52264, -101, 345, 144, 12670, -33390, 7980, -372, 325, -189
52265, -212, 454, 54, 15610, -49910, 8330, -370, 339, -198
52266, -119, 991, 30, 19460, -68040, 9170, -379, 331, -199
52267, 49, 1377, 127, 16100, -61460, 9800, -372, 340, -195
52268, 142, 1695, 126, 10640, -43330, 10290, -385, 334, -201
52269, 158, 1820, 176, 3780, -18970, 10640, -379, 339, -195
52270, -126, 1508, 9, -6230, 11900, 12040, -381, 337, -196
52271, -129, 1145, -4, -3780, -70, 13020, -382, 334, -202
52272, -41, 830, 90, -2870, -5460, 13510, -387, 334, -199
52273, 86, 695, 123, -1190, -8750, 13230, -387, 340, -193
52274, 86, 728, 192, -3220, 1050, 12880, -376, 337, -193
52275, -85, 715, 51, 2660, -18760, 13090, -391, 333, -189
52276, -15, 780, 89, 5460, -29330, 13160, -384, 336, -199
52277, 37, 906, 49, 6020, -30310, 12670, -373, 336, -199
52278, 170, 1117, 62, 7980, -32690, 11900, -381, 339, -193
52279, 304, 1383, 147, -1890, 10220, 10850, -385, 331, -193
52280, 110, 1239, 68, -4830, 22890, 10780, -390, 333, -196
52281, -8, 1064, 68, -3220, 19320, 10360, -397, 333, -181
52282, -56, 913, 71, -2520, 17080, 9800, -382, 328, -190
52283, -17, 858, 29, 140, 9380, 9240, -394, 339, -195
52284, 104, 1058, 70, 140, 11690, 8750, -384, 330, -189
52285, 154, 1097, 11, 1050, 9590, 9100, -381, 328, -196
52286, 229, 1088, 132, 140, 13300, 9380, -390, 337, -187
52287, 193, 986, 87, -5670, 32760, 9590, -393, 339, -190
52288, 168, 838, 60, -5110, 32410, 9520, -393, 337, -195
52289, 172, 638, 116, -10150, 51730, 9380, -388, 342, -184
52290, 109, 594, 70, -8190, 45850, 9730, -385, 339, -189
52291, 127, 644, 115, -6020, 38010, 10570, -403, 336, -184
52292, 118, 815, 144, -4900, 34930, 11340, -397, 339, -189
52293, 4, 1507, 142, -1540, 23590, 13160, -382, 331, -193
52294, -56, 1557, 49, -2030, 19110, 14140, -385, 342, -180
52295, -15, 1330, 48, 70, 6160, 14420, -388, 333, -186
52296, 155, 1011, 175, -420, 7980, 13650, -399, 340, -184
52297, 217, 873, 190, -5110, 27580, 11970, -396, 328, -175
52298, -16, 864, 56, -6650, 31080, 10990, -384, 337, -181
52299, -94, 775, 53, -4060, 16450, 11480, -391, 334, -186
52300, -39, 689, 113, 1330, -5110, 11690, -397, 342, -186
52301, 52, 625, 208, 2450, -10430, 11620, -394, 336, -180
52302, 37, 659, 104, 2520, -11830, 11620, -399, 346, -186
52303, 194, 925, 32, 8120, -38920, 13580, -400, 342, -180
52304, 278, 1081, 81, 6090, -34790, 14630, -396, 339, -174
52305, 289, 1289, 141, 4060, -27580, 14630, -391, 340, -178
52306, 165, 1588, 140, -1330, -6650, 13860, -412, 349, -177
52307, -181, 1783, -121, -2660, -8400, 12110, -400, 340, -174
52308, -25, 1452, -16, -1330, -16170, 10710, -408, 340, -190
52309, 242, 1059, 110, -3500, -6230, 8890, -402, 334, -181
52310, 393, 806, 213, -7910, 15540, 6650, -402, 343, -177
52311, 234, 690, 149, -14070, 42140, 5530, -397, 336, -184
52312, -201, 481, -14, -1470, -5530, 6510, -411, 349, -178
52313, -128, 339, 74, 6790, -38500, 7070, -400, 349, -186
52314, 20, 261, 119, 11550, -55020, 6860, -403, 346, -189
52315, 173, 336, 156, 14630, -61740, 5670, -414, 339, -187
52316, 192, 548, 135, 12320, -49840, 4550, -408, 349, -184
52317, 133, 1246, -43, 13930, -54530, 4130, -414, 348, -189
52318, 244, 1705, -45, 11690, -49910, 4550, -414, 343, -177
52319, 469, 1892, -10, 7210, -34440, 4830, -406, 340, -193
52320, 645, 1744, 201, -3430, 7770, 4200, -406, 345, -192
52321, 83, 1517, 123, -23380, 99470, 770, -411, 348, -187
52322, -384, 1231, -177, -20790, 90860, 840, -409, 340, -183
52323, -425, 864, -166, -4410, 27860, 1890, -397, 348, -184
52324, 20, 537, 130, 6580, -14420, 2450, -402, 352, -189
52325, 332, 357, 271, 2170, 630, 1470, -403, 340, -186
52326, 349, 581, 191, -2030, 26110, -1610, -403, 348, -181
52327, 151, 855, 69, -7840, 43330, -1540, -406, 343, -178
52328, 52, 987, -138, -2660, 17010, 0, -412, 337, -181
52329, 294, 998, 96, 3360, -12390, 1890, -406, 351, -186
52330, 520, 875, 272, -3360, 6160, 2660, -397, 358, -186
52331, 279, 962, 198, -14980, 52150, 700, -406, 352, -177
52332, -24, 1021, 151, -18550, 60480, -140, -400, 352, -183
52333, -235, 918, 73, -14280, 39690, -350, -406, 352, -183
52334, -224, 827, 219, -6790, 8400, -770, -405, 357, -178
52335, -122, 1064, 310, -210, -13650, -1750, -396, 354, -184
52336, -118, 1428, 10, 4480, -32130, -420, -399, 354, -186
52337, 89, 1502, 59, 11760, -64540, 1750, -400, 361, -183
52338, 298, 1315, 159, 8680, -57680, 3710, -402, 355, -180
52339, 405, 1146, 191, 6020, -42770, 3290, -400, 357, -186
52340, 189, 955, 168, -8330, 22540, -700, -402, 358, -184
52341, -61, 832, 66, -9100, 28770, -2520, -406, 354, -189
52342, -134, 721, -22, -3990, 9730, -2870, -402, 345, -187
52343, 59, 616, 148, 3500, -17150, -2870, -406, 355, -181
52344, 219, 513, 255, 2030, -10430, -2240, -408, 346, -177
52345, 74, 683, 188, 4410, -17360, -1820, -405, 351, -187
52346, -100, 872, 135, 5180, -23520, -1330, -403, 357, -186
52347, -226, 972, 30, 8890, -43260, -700, -409, 346, -186
52348, -109, 1041, 110, 15190, -69580, -910, -405, 342, -192
52349, 83, 1099, 211, 8750, -48580, -3780, -402, 346, -187
52350, 55, 1070, 195, 7560, -42840, -5110, -405, 355, -192
52351, -12, 960, 185, 6230, -39550, -5880, -405, 351, -193
52352, -139, 722, 105, 6930, -45780, -6160, -400, 351, -189
52353, -159, 567, 61, 13720, -70210, -6650, -411, 351, -187
52354, 11, 1301, -44, 21770, -98420, -7350, -411, 349, -192
52355, 217, 1959, -54, 20300, -96950, -6090, -409, 346, -195
52356, 490, 2095, 19, 14770, -79660, -4690, -415, 349, -193
52357, 645, 1790, 193, 2170, -33530, -4200, -412, 345, -193
52358, 510, 1347, 249, -19250, 54880, -7630, -414, 357, -198
52359, -140, 683, 22, -18480, 52360, -9030, -411, 352, -198
52360, -290, 530, -75, -10990, 19250, -9030, -408, 340, -195
52361, -118, 403, 35, -1190, -22470, -8820, -412, 352, -199
52362, 223, 315, 242, 2030, -35210, -9380, -403, 348, -201
52363, 208, 721, 158, -6230, -3080, -11690, -397, 337, -201
52364, 56, 1128, 9, -4340, -12040, -11410, -399, 342, -199
52365, 108, 1449, -2, -280, -32130, -10010, -405, 348, -198
52366, 246, 1514, 188, -840, -33810, -9030, -403, 339, -205
52367, 227, 1870, 120, -4410, -17850, -9240, -400, 346, -204
52368, 123, 1925, 78, -10990, 17990, -10640, -406, 343, -204
52369, -64, 1542, -114, -13370, 26250, -11410, -415, 343, -208
52370, 47, 979, 12, -6720, 5110, -12110, -405, 351, -214
52371, 353, 455, 296, -8470, 16030, -13790, -409, 339, -210
52372, 288, 264, 281, -16660, 50960, -17710, -405, 334, -205
52373, -246, 308, -21, -8680, 18830, -17710, -411, 334, -208
52374, -262, 219, 25, -3220, -9590, -17150, -405, 336, -213
52375, -72, 138, 66, 3570, -38150, -16940, -411, 339, -211
52376, 169, 252, 249, 4830, -42910, -17570, -397, 340, -207
52377, -38, 975, -58, -350, -28140, -15540, -402, 330, -211
52378, -46, 1491, -40, 3010, -46480, -12670, -396, 333, -217
52379, 113, 1938, 30, 2800, -48930, -9800, -396, 333, -228
52380, 391, 2034, 309, 280, -31990, -8260, -405, 337, -223
52381, 343, 2084, 315, -14070, 28490, -7840, -397, 327, -211
52382, -241, 1234, -6, -14210, 32340, -6510, -400, 337, -205
52383, -22, 460, 267, -11200, 24430, -6790, -393, 334, -223
52384, -5, 43, 241, -15400, 44590, -8400, -396, 331, -217
52385, -132, 79, 85, -10010, 31500, -10150, -390, 324, -216
52386, -279, 206, -64, -1470, -5670, -10010, -390, 336, -222
52387, -156, 393, 105, 10010, -46690, -9030, -391, 327, -234
52388, 110, 1047, 87, 12600, -53410, -7000, -391, 336, -220
52389, 262, 2183, -20, 15610, -60620, -4200, -393, 334, -211
52390, 339, 2745, 29, 9310, -39270, -630, -388, 328, -225
52391, 161, 1606, 107, -6440, 31780, 490, -400, 327, -225
52392, 183, 997, 186, -11760, 65030, -1960, -394, 340, -222
52393, 115, 520, 116, -18410, 97230, -3710, -388, 327, -214
52394, -47, 284, -26, -16030, 92680, -4060, -393, 334, -228
52395, -183, 164, 9, -11270, 72520, -3360, -385, 331, -229
52396, 7, -39, 157, 1540, 21280, -1960, -388, 325, -220
52397, 111, 28, 258, -140, 26740, -1890, -391, 331, -214
52398, -63, 317, 83, -2170, 30310, -980, -388, 330, -211
52399, -140, 903, -114, 6510, -8120, 1820, -390, 334, -220
52400, 383, 2211, 144, 9170, -45220, 9030, -390, 339, -213
52401, 564, 2134, 441, -3920, 2310, 9170, -384, 337, -225
52402, 379, 2108, 414, -18340, 65310, 6720, -388, 346, -217
52403, -150, 1971, 109, -30730, 110180, 5040, -385, 339, -217
52404, -472, 1309, -246, -23520, 76790, 5670, -397, 336, -219
52405, 145, 169, 307, -3570, -4900, 7840, -388, 331, -216
52406, 201, 28, 327, -6440, 7840, 7140, -387, 340, -211
52407, 37, 57, 167, -4900, 5110, 6510, -396, 339, -219
52408, -140, 213, 91, -70, -13300, 6440, -393, 339, -217
52409, -234, 425, -38, 5810, -40250, 7000, -394, 337, -217
52410, 122, 1259, 61, 15890, -81620, 5950, -393, 348, -219
52411, 415, 1807, 218, 11900, -64120, 4200, -388, 349, -220
52412, 553, 1967, 333, -2100, -10080, 2870, -394, 339, -220
52413, 373, 1726, 279, -14140, 35910, 2030, -399, 345, -219
52414, -153, 676, 96, -14350, 34230, 2240, -397, 336, -210
52415, -260, 307, 95, -7350, 7490, 2310, -400, 336, -210
52416, -283, 258, 152, 910, -21910, 1610, -384, 340, -216
52417, -298, 472, 68, 5600, -41580, 840, -397, 336, -216
52418, -276, 1196, -174, 12460, -72730, 910, -388, 339, -210
52419, 548, 1766, 250, 9870, -77770, 1890, -399, 325, -214
52420, 645, 1411, 384, -6020, -14910, 70, -397, 330, -219
52421, 300, 1148, 239, -18900, 37800, -2240, -396, 333, -229
52422, -132, 1016, -37, -19250, 40460, -3570, -400, 336, -216
52423, -350, 791, -108, -11270, 5810, -3290, -390, 333, -225
52424, 32, 293, 224, 5180, -57960, -3360, -394, 336, -217
52425, 158, 217, 345, 3640, -47600, -4830, -388, 339, -226
52426, -59, 499, 102, 2660, -39550, -6020, -402, 336, -226
52427, -258, 1224, -212, 11830, -72730, -5320, -396, 324, -228
52428, 236, 1697, 80, 15610, -96250, -2590, -402, 331, -235
52429, 458, 1416, 93, 13230, -78400, -4410, -396, 331, -232
52430, 556, 1291, 462, 5110, -28980, -8330, -403, 333, -235
52431, 146, 1171, 192, -12670, 46970, -12320, -397, 336, -235
52432, -393, 954, -367, -9310, 36470, -13230, -399, 325, -229
52433, 340, 551, 196, 13160, -49070, -12110, -396, 330, -229
52434, 644, 395, 321, 3220, -6720, -13510, -396, 330, -238
52435, 529, 487, 240, -5320, 35000, -15330, -402, 333, -228
52436, 152, 746, 54, -9660, 54810, -15890, -393, 330, -229
52437, -220, 896, -127, -7140, 40040, -14700, -394, 330, -234
52438, 160, 713, 285, 7210, -19460, -13440, -391, 328, -234
52439, 251, 924, 334, 1120, 7490, -15400, -391, 324, -231
52440, 65, 1497, 136, -2450, 26110, -17150, -391, 325, -241
52441, -54, 1927, -39, -1400, 21140, -17010, -399, 327, -223
52442, 280, 1262, 231, -910, 15050, -14840, -378, 325, -235
52443, 299, 899, 323, -5600, 35700, -15330, -391, 327, -235
52444, 85, 606, 155, -9800, 53970, -15890, -382, 322, -235
52445, -163, 375, 35, -5320, 38850, -16240, -382, 328, -225
52446, -248, 232, 48, 1120, 12740, -16100, -378, 316, -235
52447, -125, 557, 102, 10570, -22960, -17080, -382, 316, -231
52448, -67, 1159, 39, 11270, -26390, -17850, -394, 319, -237
52449, 122, 1727, 84, 11130, -26670, -17780, -387, 322, -231
52450, 373, 1836, 262, 4550, -3920, -16730, -376, 313, -235
52451, 302, 1754, 201, -6860, 46200, -12810, -388, 328, -226
52452, -265, 1088, -14, -7560, 32690, -11200, -379, 319, -237
52453, -345, 713, 45, -2590, 12110, -10290, -379, 321, -232
52454, -266, 501, 158, 2870, -5250, -10570, -381, 321, -231
52455, -265, 490, 118, 2590, -4340, -10500, -373, 315, -234
52456, -134, 667, 5, 12110, -43470, -8680, -379, 312, -246
52457, 65, 865, 107, 12670, -47390, -7980, -384, 324, -238
52458, 116, 1134, 143, 6720, -26880, -7490, -378, 322, -238
52459, 92, 1390, 97, 3290, -12950, -7350, -378, 322, -240
52460, 9, 1389, 189, -2030, 6720, -7210, -381, 316, -238
52461, -298, 844, 143, -210, 6090, -6230, -381, 321, -232
52462, -401, 813, 18, 6090, -15400, -4970, -378, 324, -235
52463, -424, 945, -108, 12810, -42980, -3500, -373, 315, -238
52464, -172, 1066, -84, 20300, -71610, -2310, -376, 322, -232
52465, 264, 1221, 176, 5040, -8400, -2590, -384, 324, -243
52466, 207, 1254, 54, -6930, 37730, -2870, -378, 318, -243
52467, -2, 1059, -42, -8820, 45850, -2100, -381, 328, -243
52468, -71, 860, 7, -8330, 41720, -700, -382, 324, -243
52469, -79, 608, 38, -8610, 39060, 630, -382, 337, -243
52470, 72, 614, 194, -5040, 31360, 1050, -384, 327, -253
52471, 49, 853, 248, -6510, 42560, 560, -375, 327, -235
52472, -127, 1109, 163, -6230, 45220, 1050, -370, 328, -241
52473, -280, 1300, 68, 490, 21630, 2380, -378, 330, -235
52474, -309, 1300, 24, 7140, -7070, 4060, -379, 328, -235
52475, 41, 1231, 68, 17850, -45080, 4550, -373, 333, -225
52476, 196, 1321, 48, 13860, -28000, 3570, -369, 328, -241
52477, 296, 1326, -8, 8190, -5390, 2240, -372, 327, -225
52478, 385, 1256, 114, 2100, 21000, 350, -376, 331, -225
52479, 343, 1087, 115, -13020, 83790, -2030, -378, 328, -222
52480, 77, 799, 7, -13790, 87010, -1820, -367, 325, -220
52481, 8, 790, -14, -11970, 77980, -1120, -370, 336, -232
52482, 47, 803, 9, -10010, 66360, 0, -369, 324, -235
52483, 155, 833, 93, -9730, 61390, 490, -369, 324, -226
52484, 243, 1312, 16, -16310, 77280, 1540, -354, 322, -217
52485, 212, 1514, 24, -20370, 84700, 1610, -369, 319, -210
52486, 85, 1380, 64, -28560, 103600, 1400, -372, 318, -216
52487, 137, 1158, 246, -23380, 88060, 840, -370, 313, -205
52488, 84, 1169, 590, -26530, 107030, 1400, -357, 309, -220
52489, -854, 495, -111, -8750, 31010, 7700, -367, 313, -217
52490, -751, 82, -25, 14490, -60830, 10150, -360, 325, -210
52491, -270, -124, 290, 31710, -117810, 9800, -364, 319, -210
52492, 35, -88, 424, 29820, -100380, 7490, -360, 310, -214
52493, -54, 191, 121, 32760, -92330, 2100, -370, 316, -211
52494, 44, 1437, -81, 34440, -101360, 840, -369, 316, -217
52495, 311, 2099, -66, 30240, -94360, 420, -373, 321, -219
52496, 653, 2417, 21, 18480, -59920, 280, -376, 319, -220
52497, 839, 2242, 212, -2170, 12110, -1050, -381, 324, -220
52498, 176, 1383, 74, -32970, 129290, -5040, -379, 321, -220
52499, -173, 1004, -54, -35140, 136710, -5040, -372, 318, -225
52500, -282, 525, -43, -26530, 102620, -3780, -369, 319, -219
52501, -180, 113, 159, -18900, 70000, -1820, -373, 310, -211
52502, -65, 19, 269, -12600, 47180, -420, -370, 318, -208
52503, -153, 1092, 98, -3920, 20720, 2520, -366, 322, -210
52504, -220, 1588, 64, 70, -1960, 4620, -378, 316, -205
52505, -111, 1593, 167, 4550, -25270, 6020, -376, 304, -207
52506, 5, 1275, 341, 2170, -18690, 6090, -360, 315, -213
52507, -74, 651, 38, 490, -9800, 3780, -364, 313, -205
52508, 74, 580, 153, 4410, -20650, 3010, -376, 319, -213
52509, 128, 606, 193, -140, -4200, 2730, -366, 315, -208
52510, 96, 625, 82, -140, -3360, 2870, -372, 318, -205
52511, 162, 733, 174, 1680, -8400, 3150, -372, 309, -202
52512, -37, 1336, 26, -7840, 20230, 2100, -369, 313, -211
52513, -31, 1663, -59, -6720, 11760, 1400, -361, 309, -211
52514, 254, 1610, 179, -10150, 19390, 770, -370, 315, -205
52515, 415, 1295, 318, -21560, 57820, 420, -367, 319, -213
52516, 299, 1043, 318, -28140, 84700, 700, -360, 327, -211
52517, -326, 500, 272, -25690, 82390, 4060, -358, 316, -198
52518, -668, 351, 129, -13720, 38990, 6580, -373, 319, -210
52519, -676, 258, 156, 5110, -28210, 8470, -355, 309, -211
52520, -446, 149, 236, 16030, -67550, 9590, -360, 318, -207
52521, -76, 265, 268, 25970, -88480, 7770, -370, 319, -213
52522, -84, 805, 122, 25270, -79310, 6370, -366, 318, -214
52523, -128, 1575, -88, 25830, -82250, 5390, -369, 324, -214
52524, 99, 2210, -84, 26110, -89670, 4690, -376, 324, -214
52525, 541, 2504, 98, 17360, -65520, 3780, -378, 328, -216
52526, 624, 1677, 207, -19530, 73920, 1400, -378, 327, -214
52527, 204, 1410, 232, -28700, 111300, 840, -364, 328, -214
52528, -288, 847, -105, -32550, 118580, 2450, -361, 327, -216
52529, -526, 362, -130, -17290, 55790, 3780, -379, 327, -205
52530, -215, 74, 73, -4620, 4060, 5530, -366, 324, -217
52531, 75, 164, 313, -12250, 35140, 5460, -367, 327, -207
52532, -187, 707, 104, -3850, 9310, 5950, -366, 327, -217
52533, -310, 1373, 121, 1120, -16870, 8330, -375, 325, -202
52534, -375, 1607, 94, 4550, -44450, 10150, -372, 325, -208
52535, 191, 1388, 170, 12530, -83090, 11200, -379, 325, -216
52536, 432, 1476, 325, 2940, -44800, 9660, -373, 325, -216
52537, 219, 1324, 186, -12810, 13440, 7630, -379, 333, -211
52538, -25, 1062, 11, -11480, 12950, 6020, -373, 327, -214
52539, 12, 740, 215, -8540, 4900, 5320, -372, 336, -205
52540, -111, -53, 192, -8610, 12250, 4340, -370, 334, -214
52541, -202, -69, 184, 910, -15190, 4480, -376, 328, -211
52542, -237, -1, 282, 8540, -37380, 5250, -379, 325, -214
52543, -270, 186, 179, 18270, -64050, 6650, -381, 328, -214
52544, -418, 1130, 38, 29120, -100520, 7630, -378, 330, -213
52545, 22, 2435, -10, 39550, -149660, 6720, -387, 336, -213
52546, 668, 2050, 380, 27720, -100100, 3080, -379, 334, -222
52547, 960, 1903, 429, 4550, 4200, -1890, -384, 331, -220
52548, 543, 1586, 202, -17220, 96670, -4760, -372, 321, -226
52549, -219, 430, 4, -13370, 89600, -1610, -373, 327, -225
52550, -310, 17, -61, 1260, 37170, 630, -375, 324, -220
52551, -56, -147, 294, 12390, 1820, 1540, -373, 327, -211
52552, 203, -84, 398, 12950, 7980, 700, -372, 330, -207
52553, 40, 118, 258, 7000, 32480, 490, -372, 325, -205
52554, -180, 1652, -194, 24290, -39900, 2520, -384, 331, -211
52555, 147, 2506, -153, 23170, -54460, 3710, -370, 330, -211
52556, 722, 2579, 94, 12040, -27230, 3500, -373, 333, -211
52557, 1135, 2240, 524, -13020, 63630, 280, -379, 324, -211
52558, 773, 1672, 332, -38640, 165830, -3850, -372, 313, -198
52559, -192, 863, 0, -44660, 187320, -3990, -375, 330, -195
52560, -590, 251, -30, -33880, 136080, -630, -370, 319, -204
52561, -470, -193, 339, -6020, 41090, 2310, -372, 325, -201
52562, -212, -116, 730, 3570, 13790, 4270, -369, 322, -202
52563, -626, -123, 54, 23590, -64470, 7770, -372, 322, -196
52564, -340, 127, 260, 46690, -140280, 8890, -369, 321, -193
52565, -163, 629, 304, 45080, -136150, 8120, -379, 321, -198
52566, -170, 924, -56, 46200, -145040, 5880, -375, 325, -207
52567, 186, 1137, 185, 53270, -162960, 2240, -378, 330, -201
52568, 605, 2628, -134, 18200, -24850, -4200, -384, 316, -192
52569, 517, 2910, -267, 8540, 3710, -4200, -379, 333, -201
52570, 620, 2627, -27, -4830, 43470, -3080, -378, 321, -202
52571, 715, 1902, 300, -20160, 99400, -5110, -372, 327, -202
52572, 532, 856, 403, -38430, 205800, -11900, -378, 316, -195
52573, -208, 466, -85, -31640, 169190, -11620, -370, 322, -189
52574, -140, 233, 103, -18620, 115150, -9940, -367, 318, -198
52575, 42, -207, 272, -12110, 84910, -7700, -369, 321, -189
52576, 299, -412, 558, -3500, 62510, -8330, -369, 322, -186
52577, -173, 756, -87, -8960, 95970, -8260, -370, 324, -187
52578, -67, 1941, -366, 9380, 11410, -2590, -375, 318, -189
52579, 569, 1970, 390, 11550, -29820, 3290, -363, 324, -186
52580, 797, 1206, 666, -12530, 37030, 7910, -364, 322, -180
52581, 550, 598, 748, -18340, 74620, 7210, -361, 328, -177
52582, -1375, 1037, -276, -29330, 136010, 7630, -369, 327, -178
52583, -1798, 1524, -749, 10780, -27860, 11620, -366, 330, -174
52584, -766, 984, -162, 50610, -190470, 15540, -367, 333, -180
52585, 569, 623, 903, 49700, -181510, 15400, -357, 331, -186
52586, 870, 754, 658, 3500, 23240, 8330, -375, 337, -177
52587, -156, 1623, -240, 2800, 25200, 9520, -376, 328, -177
52588, -295, 1655, -182, 7770, -6860, 11970, -366, 343, -180
52589, 42, 1062, -110, 10640, -29190, 15050, -376, 331, -172
52590, 638, 502, 566, 12950, -25410, 14140, -375, 339, -178
52591, -114, 905, 5, -20160, 116970, 12600, -381, 333, -168
52592, -542, 1296, -272, -12180, 77280, 16100, -373, 336, -181
52593, -410, 1022, -141, -140, 11130, 19600, -373, 328, -157
52594, -67, 711, 162, 2590, -15190, 21560, -376, 340, -166
52595, 234, 799, 273, -700, -7000, 21000, -372, 337, -159
52596, 173, 1567, 284, -23590, 59360, 19460, -378, 328, -166
52597, -251, 1329, 31, -25550, 49630, 21280, -381, 337, -159
52598, -391, 909, 292, -11690, -7490, 23380, -378, 336, -165
52599, -416, 439, 366, -7280, -29820, 24640, -373, 328, -174
52600, -764, 373, 109, 18550, -133770, 24220, -378, 330, -171
52601, -107, 357, 302, 33950, -189350, 22610, -378, 340, -172
52602, 227, 693, 231, 22960, -148470, 20580, -390, 337, -177
52603, 130, 1520, 15, 19180, -130550, 16870, -384, 325, -169
52604, 229, 1992, -66, 15540, -117810, 14350, -399, 343, -181
52605, 258, 1204, 375, -7980, -10780, 7630, -393, 339, -180
52606, -54, 969, 174, -8260, 1190, 5810, -390, 333, -183
52607, -413, 911, -42, -2520, -19530, 5600, -382, 336, -186
52608, -421, 608, -162, 12670, -77350, 7000, -397, 343, -190
52609, -49, 417, 321, 27510, -125510, 6370, -390, 333, -189
52610, -28, 1013, -41, 19740, -93520, 2450, -397, 348, -183
52611, 10, 1093, -154, 19670, -101220, 2100, -397, 343, -196
52612, 284, 1129, 129, 21000, -108780, 140, -402, 348, -193
52613, 362, 1111, 186, 5320, -55790, -1820, -400, 339, -195
52614, 223, 1332, -44, -2450, -27790, -5740, -399, 343, -189
52615, 289, 2048, -91, -13020, 3360, -5880, -396, 342, -208
52616, 510, 1557, 42, -18830, 22400, -6300, -399, 346, -193
52617, 735, 835, 454, -27720, 65520, -7910, -399, 334, -199
52618, 395, 958, 221, -38220, 119350, -9800, -406, 349, -205
52619, -588, 1256, -333, -22260, 41790, -5040, -397, 339, -201
52620, -13, 299, 308, 4550, -56280, -3570, -396, 331, -198
52621, 273, 22, 727, -6090, -14490, -5040, -397, 334, -204
52622, 54, 71, 128, -6790, -1680, -8330, -399, 339, -198
52623, -215, 216, 157, 2170, -27090, -10640, -381, 339, -207
52624, -279, 911, -219, 21140, -103670, -11200, -391, 340, -198
52625, 328, 1200, 70, 27300, -129640, -11200, -393, 342, -205
52626, 813, 1248, 372, 12670, -73360, -12460, -390, 346, -207
52627, 781, 1157, 411, -4830, 4830, -15190, -396, 343, -207
52628, 302, 1656, -256, -18830, 66990, -16380, -399, 351, -217
52629, -503, 1231, -470, -9660, 17920, -13370, -396, 348, -210
52630, 352, 788, 33, 13720, -59570, -12530, -397, 358, -207
52631, 1080, 1144, 690, -7280, 23100, -14000, -388, 351, -205
52632, 692, 1296, 294, -30240, 124040, -16100, -390, 339, -207
52633, -249, 1311, -8, -24990, 115990, -12250, -391, 333, -198
52634, -675, 777, -228, -16870, 71610, -8470, -378, 328, -207
52635, -145, 238, 89, 16310, -38570, -6580, -379, 339, -207
52636, 560, 282, 772, 13230, -18130, -7490, -382, 340, -196
52637, 161, 547, 214, -11760, 71260, -8680, -385, 324, -198
52638, 65, 748, 238, 20090, -34860, -6090, -385, 328, -198
52639, 94, 503, 374, 3010, 14350, -5250, -381, 334, -193
52640, -105, 440, -219, 7560, 2240, -4620, -369, 328, -190
52641, 269, 980, 179, 25340, -47880, -4550, -385, 330, -195
52642, 23, 1113, -34, -7070, 61880, -1890, -379, 333, -198
52643, 21, 1375, 224, 11830, 4830, -1890, -385, 325, -184
52644, -137, 2034, 384, -3640, 60830, -980, -385, 325, -193
52645, -521, 2265, -295, -3640, 55720, 350, -388, 336, -192
52646, -211, 1869, -239, 10500, -10780, 3780, -375, 327, -187
52647, 682, 513, 595, -17430, 77980, 4060, -376, 331, -193
52648, 441, 59, 334, -18340, 98490, 1960, -378, 324, -187
52649, -234, 87, 353, -27020, 129850, 770, -378, 331, -184
52650, -1124, 164, -430, -23870, 100240, 2380, -385, 319, -187
52651, -1042, 183, -549, 17570, -63910, 5040, -379, 328, -174
52652, 831, 374, 696, 16100, -66220, 6440, -384, 327, -186
52653, 591, 1246, 170, 1680, -5950, 5950, -384, 327, -184
52654, 348, 2168, 12, -140, -3920, 8120, -376, 330, -184
52655, 242, 2575, 6, -7420, 8890, 11480, -381, 342, -178
52656, 225, 1915, 186, -17150, 35980, 12320, -382, 325, -192
52657, 270, 1701, 571, -22190, 75600, 9100, -372, 321, -187
52658, -118, 1412, 305, -30800, 127750, 8330, -378, 336, -189
52659, -709, 1077, -175, -17780, 81550, 10640, -378, 331, -184
52660, -914, 543, -350, 4410, -15330, 15050, -378, 327, -186
52661, 798, -382, 421, 46970, -161140, 15890, -393, 340, -189
52662, 1314, -246, 1267, 7840, 2730, 10430, -387, 340, -181
52663, 153, 147, -94, -17920, 114730, 6440, -382, 346, -180
52664, -640, 986, -537, 5110, 34930, 7070, -394, 337, -177
52665, -338, 1150, -432, 22050, -49560, 11830, -384, 346, -186
52666, 877, 962, -5, 16380, -51100, 14000, -393, 340, -184
52667, 1388, 1719, 609, 4130, 8610, 9800, -394, 360, -183
52668, 708, 1997, -12, -36190, 152320, 7350, -390, 342, -174
52669, 374, 1461, -128, -27160, 120120, 6510, -393, 340, -174
52670, -211, 535, -312, -40810, 138180, 7980, -391, 345, -175
52671, -32, 296, -65, -15890, 46270, 6790, -397, 346, -166
52672, 152, 377, 726, -23310, 69090, 5250, -388, 340, -171
52673, -79, 1050, 319, -23450, 81690, 5110, -387, 342, -166
52674, -340, 2531, -105, -7420, 24780, 8750, -388, 331, -171
52675, 101, 1529, 209, 10290, -86590, 18900, -379, 348, -174
52676, 481, 320, 560, 10010, -70490, 16800, -391, 336, -168
52677, 348, -7, 494, -1680, -2730, 11690, -391, 343, -175
52678, -18, 223, -58, -1680, 10920, 6860, -387, 339, -171
52679, -401, 403, -151, 2590, -58380, 3220, -390, 339, -174
52680, 136, -36, 170, 28490, -110810, 1050, -393, 339, -181
52681, 652, -49, 445, 18060, -66150, -2310, -400, 343, -168
52682, 459, 252, 282, 1610, 6370, -6650, -390, 339, -183
52683, -90, 913, -315, -3220, 28000, -8260, -394, 337, -169
52684, 434, 1618, -23, 12670, -56350, -3570, -390, 342, -178
52685, 1067, 1837, 209, -1820, -6650, -1680, -396, 334, -171
52686, 1069, 2442, 189, -19530, 77910, -1050, -390, 331, -175
52687, 693, 2947, 835, -29680, 147280, -1960, -393, 340, -175
52688, -283, 2710, 114, -45150, 210070, 1470, -384, 333, -169
52689, -789, 301, -434, -7070, 27860, 8260, -384, 336, -160
52690, 845, -374, 408, 30870, -87850, 6230, -382, 330, -163
52691, 1623, -113, 1681, -25480, 138110, -910, -387, 339, -175
52692, -92, -92, -552, -44870, 222950, -4760, -381, 330, -175
52693, -564, 513, -227, -5810, 61320, -4270, -387, 330, -165
52694, -49, 645, -278, 7420, -7140, -2730, -376, 331, -156
52695, 1089, 922, 134, 23730, -73290, 980, -384, 333, -153
52696, 2074, 1088, 1455, -11760, 59220, 3780, -382, 334, -169
52697, 735, 1561, 516, -22470, 129150, 6020, -378, 336, -159
52698, -1316, 2513, -532, -14910, 66780, 17220, -378, 346, -151
52699, -1195, 1003, -813, 13440, -66500, 20650, -382, 334, -169
52700, 653, -46, 589, 63000, -215040, 15540, -384, 342, -151
52701, 1583, -82, 1513, -7980, 63770, 8400, -393, 349, -159
52702, 34, 310, -309, -16870, 122080, 2030, -382, 357, -151
52703, -287, 1098, -146, 7770, 9660, 6790, -388, 343, -145
52704, -163, 436, -247, 11270, -28980, 10500, -388, 355, -154
52705, 814, -11, 371, 34790, -99540, 9870, -388, 342, -148
52706, 1232, 553, 1030, -3430, 52430, 6720, -384, 349, -142
52707, 71, 2063, -448, -4130, 46200, 7910, -390, 351, -150
52708, 666, 2309, 292, -10150, 42910, 10850, -391, 357, -151
52709, 603, 1030, 474, -38360, 137200, 11550, -393, 354, -142
52710, 551, 1116, 317, -22820, 115430, 9310, -381, 348, -139
52711, 272, 2060, 427, -42070, 188930, 8330, -385, 349, -124
52712, -523, 431, -320, -7770, 24010, 15820, -387, 346, -132
52713, 474, -400, 1134, 8120, -22400, 16380, -384, 334, -126
52714, -282, -346, 832, -35140, 134050, 15400, -391, 340, -132
52715, -1138, 2, -859, -4410, 35910, 16800, -388, 333, -132
52716, -982, 441, -31, 41650, -135940, 18480, -396, 343, -127
52717, -119, -141, -97, 46130, -190120, 21420, -390, 340, -127
52718, 610, -196, 393, 49420, -188160, 21420, -393, 354, -133
52719, 776, 448, 593, 28280, -95130, 19250, -405, 348, -129
52720, -88, 1344, -346, 3850, -13650, 20930, -394, 339, -130
52721, -292, 1699, -586, 24360, -114310, 25550, -405, 339, -136
52722, 240, 1103, -44, 8400, -63700, 24080, -402, 346, -132
52723, 512, 1591, 60, 10570, -57260, 20650, -400, 351, -138
52724, 543, 2353, 242, -14700, 38360, 17640, -412, 354, -138
52725, 91, 2559, -368, -30590, 87500, 16940, -409, 354, -133
52726, 601, 872, 689, -28000, 88480, 20020, -406, 352, -130
52727, 15, 837, 772, -38010, 157010, 20930, -400, 355, -132
52728, -1137, 1496, -547, -31990, 135310, 25620, -400, 355, -120
52729, -1359, 1735, -1066, 8330, -45570, 32830, -408, 357, -130
52730, 213, 422, -136, 50400, -214830, 38850, -406, 351, -135
52731, 562, -392, 152, -22330, 95830, 29470, -412, 363, -130
52732, -200, 432, -225, 5180, 22260, 24010, -418, 360, -133
52733, -690, 947, -188, -2170, 27790, 23240, -409, 355, -129
52734, -973, 560, -798, 9800, -45850, 23380, -423, 361, -135
52735, -37, 5, 1049, 39130, -145600, 16520, -426, 364, -135
52736, 805, 350, 376, -12600, 54390, 9800, -426, 366, -129
52737, -47, 2009, -983, 2730, 4690, 10850, -423, 370, -124
52738, 776, 3569, -167, 31150, -115290, 18200, -423, 361, -129
52739, 1118, 3099, 326, -10010, 10150, 25760, -420, 367, -141
52740, 381, 1291, 638, -14910, 96670, 21770, -417, 366, -130
52741, -541, 995, -514, -17220, 112280, 18970, -433, 379, -123
52742, -1063, 727, -716, 2660, 19180, 19390, -430, 373, -129
52743, -63, 100, -385, 40810, -124950, 18130, -430, 376, -124
52744, 1223, -166, 1036, 27860, -74130, 12950, -424, 375, -124
52745, 253, 414, -29, -3500, 76720, 1400, -427, 372, -130
52746, -94, 1072, -450, -4340, 70280, 3150, -430, 373, -118
52747, -46, 1138, -567, 9030, -3640, 7700, -432, 379, -121
52748, 794, 560, -7, 22680, -70700, 12320, -421, 367, -124
52749, 775, 532, 276, -17780, 104860, 9940, -433, 372, -121
52750, 91, 1829, -93, -9240, 97790, 10150, -427, 364, -114
52751, -461, 2662, -252, -10500, 90160, 13720, -421, 373, -121
52752, -632, 2074, -541, 280, 29190, 19110, -436, 372, -112
52753, 338, 1171, 234, 36470, -80360, 20930, -430, 375, -109
52754, -75, 742, -344, -3570, 105980, 20510, -445, 372, -108
52755, -509, 927, -575, 22890, 12040, 21560, -435, 370, -106
52756, -241, 876, -359, 25550, -19740, 23870, -435, 370, -108
52757, 588, 553, -38, 33880, -53550, 23100, -442, 370, -94
52758, 1285, 519, 641, 10920, 41160, 21560, -447, 370, -97
52759, 206, 1418, -325, -14070, 147910, 20580, -436, 376, -103
52760, 284, 1356, -365, -7700, 110250, 24500, -439, 370, -96
52761, 533, 984, 10, -13790, 114380, 28210, -445, 378, -91
52762, 742, 907, -109, -18480, 124460, 29680, -445, 370, -94
52763, 975, 1086, 85, -41860, 205240, 31360, -448, 382, -88
52764, 689, 868, 34, -51590, 231980, 35140, -451, 373, -93
52765, 454, 370, 17, -50190, 218120, 38290, -445, 372, -90
52766, -211, 36, 176, -62090, 248920, 41230, -439, 366, -88
52767, -624, -107, -274, -47180, 193830, 46340, -451, 373, -79
52768, -666, 709, 142, -34650, 155680, 59290, -451, 367, -85
52769, -943, 878, -401, -11130, 52010, 68320, -462, 385, -76
52770, -419, 1076, -162, 11130, -67760, 78050, -456, 378, -87
52771, 535, 1432, 157, 15190, -128660, 83650, -463, 382, -82
52772, 1162, 1495, 471, -7350, -78610, 85890, -477, 385, -84
52773, 727, 1015, 477, -30520, 63840, 82180, -471, 382, -100
52774, 102, 901, 189, -27790, 92260, 84140, -478, 372, -90
52775, -507, 660, -191, -28140, 99190, 88760, -483, 393, -82
52776, -485, 227, -297, -3080, 11480, 91210, -484, 381, -90
52777, -34, 559, 42, -1470, -11690, 87850, -492, 388, -82
52778, -39, 917, -231, 10360, -54740, 88410, -502, 387, -70
52779, 202, 1034, -65, 16590, -87640, 91000, -510, 393, -73
52780, 377, 931, -79, 12810, -97790, 91700, -513, 379, -79
52781, 799, 1070, -80, 15610, -122710, 90790, -522, 397, -78
52782, 1063, 1361, 28, -23800, 47670, 86520, -528, 396, -91
52783, 1002, 1151, 195, -14700, 35210, 86800, -529, 390, -72
52784, 844, 821, 225, -32620, 100660, 85610, -537, 400, -73
52785, 179, 643, -161, -35140, 101780, 81270, -534, 406, -76
52786, 94, 534, -219, -25200, 56210, 78750, -541, 397, -82
52787, 129, 921, 141, -32060, 85260, 76790, -546, 400, -85
52788, 71, 1093, -209, -7490, 9240, 77210, -543, 396, -82
52789, 325, 1115, 151, -3430, -11830, 79520, -552, 409, -84
52790, 442, 811, -62, 910, -36330, 77280, -555, 408, -94
52791, 992, 308, 179, 8960, -59430, 66570, -561, 403, -76
52792, 1148, 409, 499, -7420, 20650, 59290, -559, 409, -79
52793, 619, 498, -81, -14980, 70560, 53270, -564, 414, -84
52794, 508, 632, -101, -7000, 55020, 50680, -576, 414, -87
52795, 760, 674, 88, -4340, 38920, 51310, -580, 402, -87
52796, 1381, 779, 266, -3990, -20020, 64540, -576, 408, -84
52797, 1267, 936, 347, -19250, 7980, 71750, -577, 414, -82
52798, 674, 857, -63, -22820, 7840, 76440, -580, 409, -78
52799, 474, 715, 175, -19530, 2380, 77350, -592, 402, -103
52800, 199, 551, 33, -23940, 17430, 74410, -594, 412, -90
52801, 54, 544, -128, -6580, -210, 72730, -606, 408, -84
52802, 172, 533, -41, -2800, -14350, 69300, -598, 406, -81
52803, 412, 545, -180, -490, -32340, 64820, -604, 406, -79
52804, 925, 820, 178, 6650, -68810, 57400, -613, 408, -90
52805, 1129, 1098, -241, 5040, -91420, 50680, -610, 388, -84
52806, 1469, 1101, 478, -8680, -47390, 48860, -612, 391, -75
52807, 819, 686, -324, -14350, -28980, 46900, -616, 396, -91
52808, 1020, 775, 180, 490, -71470, 44380, -625, 397, -79
52809, 1012, 829, -91, -15050, -3290, 42560, -621, 396, -78
52810, 791, 566, -135, -9030, 4830, 45570, -624, 397, -81
52811, 829, 475, 346, -5530, -8260, 48650, -636, 384, -82
52812, 225, 380, -340, -23730, 33320, 58100, -625, 394, -87
52813, 41, 488, -355, 8050, -87500, 65800, -631, 390, -85
52814, 159, 473, -78, 5530, -100030, 79240, -648, 385, -70
52815, -371, 9, -494, 4970, -104720, 82180, -630, 394, -72
52816, -21, 208, -370, 30660, -190120, 81130, -651, 388, -72
52817, 216, 579, -105, 17360, -145110, 83650, -652, 378, -60
52818, 163, 674, -546, 20230, -151200, 85750, -663, 381, -55
52819, 341, 709, -442, 27090, -188020, 96180, -661, 379, -46
52820, 318, 775, -433, 22680, -186760, 102270, -678, 388, -42
52821, 446, 795, -570, 29400, -212870, 107590, -673, 373, -27
52822, 611, 754, -369, 27860, -196350, 113050, -687, 366, -25
52823, 671, 474, -515, 27510, -172620, 116830, -685, 363, -13
52824, 1006, 289, -322, 30590, -129010, 124110, -690, 367, -1
52825, 1026, 386, -236, 24920, -81130, 128450, -697, 351, -3
52826, 900, 359, -363, 23030, -45920, 132650, -702, 349, 0
52827, 689, 243, -213, 20790, -11900, 136150, -702, 340, -1
52828, 549, 100, -327, 24500, 5110, 142520, -717, 340, -3
52829, 1437, 555, -512, 32900, -21070, 152180, -717, 334, 3
52830, 1906, 925, 12, 21560, 7630, 165760, -729, 319, 4
52831, 491, 376, -155, 980, 59780, 175840, -739, 315, 3
52832, 32, 1, -508, 15750, 1890, 179900, -747, 312, 4
52833, 901, 271, 122, 10430, 30940, 185710, -760, 298, 7
52834, 552, -147, -172, 13160, 18130, 190190, -759, 280, -6
52835, 516, -255, 4, 17640, -4480, 196350, -765, 277, -3
52836, 173, 193, 401, 16170, -6370, 200480, -783, 270, -9
52837, 709, 1747, -3842, 14350, -136150, 4690, -760, 297, 66
52838, 3997, -3428, 3997, -74130, -706370, -239260, -726, 324, 90
52839, 3997, 1629, -3253, -28700, 34370, -233940, -715, 337, 93
52840, 3997, -3997, 3997, 163100, 701470, 606620, -765, 292, 28
52841, 3997, 1554, -3997, 272650, 1287510, 413280, -789, 270, -3
52842, -1169, -899, -892, 13020, 15470, 745500, -795, 217, -33
52843, -3997, 2405, 744, -45570, 319130, -27300, -808, 226, -58
52844, 444, 556, -3997, 9870, -498890, -54600, -795, 216, -21
52845, 1621, 46, -1540, -26950, 350560, -441840, -805, 241, -21
52846, 1186, 134, -3507, 26390, -411530, -3780, -790, 244, -16
52847, 1406, 754, 47, 17150, -146160, 17850, -792, 261, 0
52848, 948, -219, -1162, -3150, 18340, -47180, -783, 244, 0
52849, 3956, 158, 921, 1330, -47180, -132300, -774, 250, -4
52850, 1248, -1219, 85, -1540, 10710, -79030, -778, 247, -3
52851, 1511, 239, -135, -70, 9170, -4270, -781, 259, 7
52852, 1892, 386, 118, 840, 210, 3500, -784, 255, 3
52853, 702, 27, 115, -1820, -8050, 3990, -786, 255, -3
52854, 1361, 119, -164, -490, 5180, -3570, -783, 261, -1
52855, 870, 34, -41, 70, -3220, 1050, -784, 262, 4
52856, 772, 106, 144, -420, -4340, 1610, -775, 255, -1
52857, 761, 175, -190, -280, 1680, -700, -784, 259, 3
52858, 1128, 46, 24, -630, -840, -420, -784, 250, 0
52859, 903, 196, -103, 560, 2520, 70, -775, 258, 4
52860, 994, 94, 75, -280, 560, -490, -789, 262, 9
52861, 963, 73, -16, -210, -140, -70, -778, 262, 4
52862, 1064, 147, -18, 420, -490, -280, -774, 249, -3
52863, 883, 149, -58, -70, 350, -70, -783, 259, 9
52864, 1029, 145, -22, 280, 350, 70, -783, 262, 1
52865, 977, 99, -71, -350, -350, 0, -786, 267, 6
52866, 923, 173, -69, -420, -770, 0, -783, 250, 1
52867, 975, 116, -21, 490, 1470, 140, -775, 268, 4
52868, 1035, 127, -36, -140, -630, 0, -784, 250, 0
52869, 958, 110, -23, 210, 280, -350, -783, 252, -4
52870, 997, 97, 1, 0, 0, 0, -772, 247, 4
52871, 971, 165, -79, 0, 980, -70, -780, 259, 0
52872, 995, 95, 11, 70, 280, -70, -781, 259, -3
52873, 956, 166, -83, 0, 280, -140, -780, 265, 6
52874, 1017, 85, 22, -70, -490, -140, -772, 258, -3
52875, 993, 99, 8, 70, 420, 0, -793, 252, 4
52876, 983, 165, -76, 140, 420, 70, -780, 258, 7
52877, 989, 88, -1, -70, 210, -210, -781, 259, 7
52878, 982, 167, -67, -70, -140, -70, -769, 258, -4
52879, 961, 104, -8, -140, 0, -140, -784, 267, 3
52880, 976, 102, -18, -70, 140, 0, -783, 258, 0
52881, 992, 151, -55, 140, 420, -70, -784, 258, 10
52882, 982, 108, -14, -210, -490, -210, -780, 258, -3
52883, 969, 157, -57, 140, 350, -140, -783, 253, -1
52884, 982, 144, -48, 210, 700, 0, -783, 259, 1
52885, 984, 116, -23, -70, 70, -70, -784, 270, 4
52886, 985, 140, -41, 70, -70, -140, -780, 261, 0
52887, 969, 128, -35, -140, -140, -140, -784, 255, 13
52888, 987, 140, -34, 140, 350, 0, -783, 255, -1
52889, 999, 126, -28, 140, 420, -70, -783, 259, 1
52890, 972, 133, -43, -140, -280, -140, -783, 259, 4
52891, 982, 131, -29, 0, 140, -70, -777, 265, 0
52892, 971, 140, -44, -70, 140, -70, -781, 262, 7
52893, 985, 124, -28, 140, 490, -70, -780, 259, 7
52894, 986, 121, -27, 70, 70, -70, -787, 264, 3
52895, 973, 143, -45, -70, 0, -70, -786, 250, -3
52896, 979, 125, -26, 0, 210, 0, -780, 268, 3
52897, 975, 142, -48, 70, 350, 0, -783, 258, 9
52898, 976, 142, -47, 0, 70, -140, -786, 262, 0
52899, 981, 123, -25, 0, 70, -140, -772, 261, 1
52900, 974, 145, -48, 0, 210, -70, -774, 259, 1
52901, 985, 121, -26, 0, 350, -70, -777, 250, 3
52902, 983, 139, -45, 0, 210, -70, -780, 256, 1
52903, 977, 142, -43, 70, 140, -70, -777, 267, -4
52904, 978, 125, -28, 70, 210, -70, -781, 255, -7
52905, 981, 140, -43, 0, 350, -70, -787, 255, 1
52906, 986, 123, -29, 0, 140, -70, -784, 256, 6
52907, 980, 138, -43, 0, 70, -70, -795, 250, 1
52908, 976, 140, -41, 0, 280, -70, -783, 264, 0
52909, 982, 126, -31, 0, 280, -70, -783, 261, 0
52910, 983, 135, -39, 0, 210, -70, -783, 258, 1
52911, 980, 127, -32, 0, 140, -70, -780, 264, 10
52912, 978, 130, -33, 0, 140, -70, -784, 259, 3
52913, 981, 134, -38, 70, 350, -70, -780, 253, 9
52914, 983, 128, -33, 0, 140, -140, -787, 258, 0
52915, 980, 135, -38, -70, 140, -70, -783, 261, 3
52916, 979, 130, -34, 0, 70, -70, -778, 262, 4
52917, 981, 130, -34, 0, 210, 0, -777, 255, 4
52918, 982, 133, -36, 0, 140, -70, -781, 256, -1
52919, 979, 131, -35, -70, 70, -70, -778, 264, -4
52920, 980, 134, -37, 0, 140, -70, -784, 256, 7
52921, 979, 131, -35, 70, 280, -70, -777, 258, 7
52922, 981, 132, -34, 0, 140, -70, -786, 256, 6
52923, 980, 133, -36, 0, 140, -70, -778, 256, -1
52924, 980, 132, -35, -70, 70, -70, -781, 258, 3
52925, 979, 133, -37, 70, 140, -70, -775, 253, 1
52926, 981, 132, -36, 0, 210, 0, -784, 259, 4
52927, 980, 131, -35, 0, 140, -70, -775, 261, -1
52928, 980, 133, -36, 0, 140, -70, -780, 259, 9
52929, 980, 132, -35, 0, 140, -70, -775, 256, -1
52930, 981, 132, -35, 0, 210, -70, -786, 252, 12
52931, 980, 133, -35, 0, 210, -70, -781, 256, 10
52932, 979, 132, -34, 70, 210, -70, -786, 261, -4
52933, 979, 131, -36, -70, 140, -70, -787, 258, 0
52934, 983, 132, -36, -70, 140, -70, -780, 258, 1
52935, 980, 132, -35, 0, 210, -70, -786, 259, 6
52936, 981, 132, -37, 0, 210, -70, -783, 259, 1
52937, 980, 130, -35, 0, 210, 0, -781, 256, 0
52938, 979, 132, -35, 0, 210, -140, -777, 261, 4
52939, 980, 131, -34, 0, 140, -70, -780, 262, 4
52940, 980, 132, -37, 0, 210, -70, -784, 255, 3
52941, 980, 133, -36, 0, 140, -70, -784, 259, 3
52942, 981, 131, -35, 0, 210, -70, -783, 261, 7
52943, 980, 131, -35, 0, 210, -70, -775, 258, -1
52944, 979, 132, -34, 0, 140, -70, -784, 259, 6
52945, 981, 132, -36, 0, 70, -70, -787, 256, -3
52946, 981, 132, -37, -70, 140, -70, -780, 244, 3
52947, 980, 131, -36, 70, 210, -70, -783, 252, 12
52948, 981, 132, -36, 0, 210, -70, -784, 258, 9
52949, 981, 132, -35, -70, 140, -70, -787, 261, 7
52950, 981, 132, -35, 0, 140, 0, -784, 258, 0
52951, 981, 132, -35, 0, 140, -70, -786, 258, 6
52952, 981, 131, -35, -70, 210, -140, -771, 255, -1
52953, 979, 132, -35, 0, 210, -70, -772, 255, 7
52954, 981, 132, -37, 0, 140, -70, -789, 256, 7
52955, 980, 132, -36, 70, 140, -140, -781, 258, 7
52956, 981, 132, -35, 0, 210, -70, -784, 250, -1
52957, 981, 132, -35, 0, 210, -70, -781, 250, 10
52958, 980, 132, -35, 0, 140, -70, -784, 256, 4
52959, 981, 132, -35, 0, 140, -70, -787, 250, 4
52960, 980, 131, -35, 0, 140, -70, -784, 249, 3
52961, 980, 132, -35, 0, 140, -70, -781, 253, 12
52962, 981, 132, -36, 0, 140, -70, -787, 255, 3
52963, 981, 131, -35, -70, 210, -70, -784, 258, 16
52964, 980, 132, -34, -70, 210, -70, -784, 253, 4
52965, 980, 132, -35, -70, 140, 0, -778, 258, 6
52966, 980, 132, -35, 0, 140, -70, -777, 258, 1
52967, 981, 132, -36, 70, 140, -70, -786, 255, -1
52968, 980, 132, -34, 0, 210, -70, -778, 258, -4
52969, 980, 131, -36, 0, 210, -70, -789, 259, 3
52970, 981, 132, -35, 70, 140, -70, -774, 255, 1
52971, 980, 132, -35, 0, 140, -140, -780, 243, 1
52972, 980, 132, -35, 0, 140, -70, -774, 264, -1
52973, 981, 132, -36, 70, 70, -70, -780, 261, 1
52974, 980, 132, -36, 0, 210, -70, -783, 265, -4
52975, 981, 132, -36, 0, 210, -70, -786, 268, 9
52976, 981, 132, -35, 0, 210, -70, -778, 256, -6
52977, 980, 132, -35, 0, 140, -70, -787, 258, 1
52978, 981, 132, -35, 70, 210, -140, -780, 256, 9
52979, 980, 132, -35, 0, 210, -70, -784, 259, 3
52980, 980, 132, -35, 0, 140, -70, -777, 262, 1
52981, 980, 131, -34, 0, 70, -70, -780, 253, -3
52982, 981, 132, -36, 70, 140, -70, -784, 264, 3
52983, 980, 132, -36, 0, 140, -70, -784, 256, -1
52984, 980, 131, -35, 70, 210, -70, -771, 255, -4
52985, 981, 132, -36, 70, 140, 0, -786, 265, -6
52986, 980, 132, -35, -70, 140, 0, -781, 249, 0
52987, 981, 132, -36, 0, 140, -70, -784, 270, -1
52988, 981, 132, -36, 0, 210, -70, -784, 256, 0
52989, 981, 132, -35, 0, 210, -70, -781, 256, 4
52990, 981, 132, -35, 0, 140, -70, -781, 253, -3
52991, 981, 132, -35, 0, 140, -70, -777, 247, -7
52992, 980, 132, -35, -70, 210, -70, -789, 256, 4
52993, 981, 132, -35, 70, 140, 0, -777, 256, 1
52994, 980, 132, -35, 70, 70, -70, -781, 255, -1
52995, 981, 132, -36, 0, 140, -70, -789, 261, 12
52996, 980, 132, -36, 0, 210, -70, -777, 265, -1
52997, 980, 132, -35, 0, 140, -70, -787, 264, 15
52998, 981, 132, -36, 0, 280, -70, -772, 264, 1
52999, 980, 132, -35, -70, 210, -70, -778, 250, -3
53000, 980, 132, -35, -70, 210, -70, -778, 262, 6
53001, 981, 132, -35, 0, 280, -70, -777, 252, -6
53002, 981, 132, -36, 0, 140, -70, -784, 253, 0
53003, 981, 132, -35, 0, 210, -70, -786, 249, 4
53004, 980, 132, -35, -70, 280, -70, -784, 259, 4
53005, 980, 132, -35, 0, 210, -70, -781, 261, 3
53006, 981, 132, -35, 0, 140, -70, -771, 258, 0
53007, 980, 132, -36, 70, 140, -70, -781, 258, 0
53008, 981, 132, -36, 0, 210, -70, -781, 256, 4
53009, 981, 132, -36, 0, 140, -70, -786, 253, 6
53010, 981, 132, -35, -70, 210, -70, -786, 256, 0
53011, 981, 132, -36, 70, 140, -70, -784, 250, -7
53012, 980, 132, -36, 0, 210, -70, -774, 262, -7
53013, 980, 132, -35, 70, 140, -70, -780, 252, -4
53014, 981, 132, -36, 0, 140, -70, -781, 259, 0
53015, 980, 132, -35, 0, 140, -70, -781, 249, -3
53016, 980, 132, -35, 0, 140, -70, -783, 252, 1
53017, 981, 132, -36, 70, 140, -70, -781, 258, -9
53018, 980, 132, -35, 0, 140, -70, -789, 255, 6
53019, 980, 131, -34, 0, 140, -70, -781, 250, 3
53020, 981, 132, -35, -70, 70, -70, -781, 261, -1
53021, 981, 131, -35, -70, 140, -70, -781, 256, -4
53022, 980, 132, -35, 70, 140, -70, -780, 250, 10
53023, 980, 132, -35, 0, 140, -140, -787, 255, -3
53024, 981, 132, -35, 0, 210, -70, -775, 267, -1
53025, 981, 132, -34, 70, 140, -70, -780, 256, -7
53026, 980, 131, -36, 0, 210, -70, -783, 256, 7
53027, 980, 132, -35, 0, 140, -70, -781, 255, -1
53028, 980, 132, -35, 0, 140, -70, -780, 262, 7
53029, 981, 132, -35, 0, 210, -70, -781, 259, 1
53030, 981, 131, -35, 0, 210, -70, -787, 256, 0
53031, 981, 132, -34, 0, 140, -70, -790, 259, -3
53032, 979, 132, -36, 70, 140, 0, -781, 255, 7
53033, 980, 132, -35, -70, 140, -70, -775, 264, 1
53034, 980, 132, -35, 70, 140, -70, -778, 256, -3
53035, 981, 132, -36, 0, 140, -70, -777, 256, -1
53036, 981, 132, -36, 0, 70, -70, -772, 255, -3
53037, 982, 132, -35, 0, 140, -70, -774, 256, 12
53038, 980, 131, -35, 0, 210, -70, -774, 253, 4
53039, 981, 131, -35, 70, 140, -70, -784, 247, 3
53040, 980, 132, -36, 0, 210, -70, -781, 258, -1
53041, 981, 132, -35, 0, 140, -70, -780, 253, 4
53042, 982, 132, -35, 0, 70, -70, -783, 250, 13
53043, 980, 132, -36, 0, 210, -70, -787, 255, 10
53044, 981, 132, -35, -70, 210, -140, -777, 258, -3
53045, 980, 131, -35, 0, 210, -70, -781, 253, 0
53046, 980, 132, -34, 70, 210, -70, -783, 255, 4
53047, 980, 132, -35, 0, 210, -70, -783, 258, 9
53048, 980, 132, -35, 0, 140, 0, -784, 252, 3
53049, 980, 132, -35, -70, 210, -70, -784, 268, 10
53050, 981, 132, -36, 0, 140, -70, -771, 261, -1
53051, 980, 132, -35, 0, 140, -70, -784, 262, 12
53052, 981, 133, -35, 0, 140, -140, -778, 261, 0
53053, 980, 132, -35, 0, 210, -70, -778, 250, 6
53054, 981, 132, -36, 0, 210, -70, -784, 256, 6
53055, 981, 132, -35, 0, 210, -70, -775, 258, -3
53056, 980, 132, -35, 0, 210, -70, -781, 256, 0
53057, 980, 132, -35, 70, 70, -70, -780, 265, 4
53058, 980, 132, -34, -70, 140, -70, -778, 264, 7
53059, 981, 132, -35, 0, 140, -70, -777, 255, 9
53060, 980, 132, -35, 0, 140, -70, -771, 265, -6
53061, 981, 132, -35, 0, 140, -70, -783, 265, -4
53062, 981, 132, -35, 0, 140, -70, -775, 262, 7
53063, 980, 132, -36, -70, 140, -70, -781, 255, 4
53064, 981, 132, -35, 0, 210, -70, -774, 259, 1
53065, 981, 132, -35, 0, 140, -70, -780, 255, 6
53066, 980, 132, -35, -70, 140, -70, -775, 255, 0
53067, 981, 132, -35, -70, 210, -70, -783, 258, 13
53068, 981, 132, -35, 0, 210, -70, -784, 258, -1
53069, 979, 132, -35, -70, 140, -70, -778, 259, 4
53070, 980, 132, -35, 0, 70, -70, -777, 258, 12
53071, 980, 132, -35, 0, 140, -70, -789, 258, 3
53072, 981, 132, -35, 0, 210, -70, -781, 258, -4
53073, 980, 132, -35, 0, 140, -70, -780, 253, 9
53074, 981, 132, -35, 0, 210, -70, -786, 247, 1
53075, 981, 132, -35, 0, 140, -70, -784, 253, 10
53076, 981, 132, -35, 0, 140, -70, -790, 255, 0
53077, 980, 132, -36, 0, 280, -70, -786, 258, 7
53078, 981, 132, -34, 0, 210, -70, -786, 253, 3
53079, 980, 132, -35, 0, 210, -140, -772, 259, -3
53080, 981, 132, -36, 0, 140, -70, -780, 253, 9
53081, 981, 132, -35, 0, 140, -70, -783, 253, 0
53082, 980, 132, -35, 0, 210, -70, -777, 249, 0
53083, 981, 132, -35, -70, 210, -70, -787, 256, 3
53084, 981, 132, -35, 140, 210, -70, -775, 256, -6
53085, 980, 132, -35, 70, 140, -70, -781, 261, 3
53086, 981, 132, -35, 70, 140, -70, -778, 252, -3
53087, 981, 132, -36, 0, 140, -70, -775, 262, 7
53088, 980, 133, -35, 0, 140, 0, -781, 259, 4
53089, 982, 132, -35, 0, 140, -70, -789, 262, 3
53090, 980, 132, -35, 70, 210, -70, -777, 252, 4
53091, 979, 132, -35, 0, 140, -70, -784, 255, 10
53092, 981, 131, -35, 0, 210, -70, -787, 256, 7
53093, 980, 132, -35, 0, 210, -70, -787, 255, 4
53094, 981, 132, -36, 0, 140, -70, -784, 262, -6
53095, 981, 132, -35, 70, 140, -140, -781, 258, -1
53096, 980, 132, -35, 0, 210, -140, -787, 253, -4
53097, 981, 132, -35, 0, 210, -70, -790, 264, -3
53098, 980, 132, -35, 0, 140, -70, -777, 255, 4
53099, 981, 132, -36, 0, 140, -70, -784, 246, 4
53100, 981, 132, -35, 140, 210, -70, -786, 264, -1
53101, 980, 132, -35, 70, 210, -70, -780, 252, -3
53102, 981, 132, -36, 0, 210, -70, -778, 255, 1
53103, 981, 132, -36, 0, 210, -70, -775, 267, -4
53104, 980, 133, -35, -70, 210, -70, -781, 264, -4
53105, 981, 132, -35, 0, 140, -70, -778, 256, -1
53106, 980, 132, -36, 0, 140, -70, -783, 247, 4
53107, 981, 132, -35, 70, 140, -70, -780, 255, -1
53108, 980, 131, -36, -70, 140, -70, -781, 255, 4
53109, 980, 131, -35, 0, 210, -70, -775, 252, -1
53110, 980, 132, -36, 70, 140, -70, -778, 258, 7
53111, 981, 132, -34, 70, 140, -70, -778, 255, 7
53112, 980, 132, -35, -70, 210, 0, -783, 258, -1
53113, 980, 132, -35, 70, 140, -70, -784, 262, -4
53114, 980, 132, -35, 0, 140, -70, -780, 261, -1
53115, 981, 132, -35, 0, 140, -70, -781, 261, 0
53116, 980, 132, -37, 0, 140, -70, -787, 255, -1
53117, 981, 132, -35, 0, 140, -70, -789, 252, 1
53118, 980, 132, -34, 0, 140, -70, -783, 268, 3
53119, 980, 132, -37, 0, 210, 0, -780, 249, 7
53120, 980, 132, -36, 0, 210, -70, -784, 247, -6
53121, 981, 132, -36, 0, 140, -70, -784, 259, 13
53122, 981, 131, -35, -70, 210, -70, -778, 258, 0
53123, 980, 132, -35, -70, 140, -70, -781, 246, 0
53124, 981, 132, -36, 0, 140, -70, -783, 259, 7
53125, 981, 132, -35, 0, 140, -70, -780, 256, -7
53126, 981, 132, -34, 0, 280, -70, -778, 258, 1
53127, 980, 132, -35, 0, 210, -70, -780, 255, 4
53128, 981, 132, -36, 70, 140, -70, -787, 261, 1
53129, 980, 131, -34, 0, 140, -70, -792, 258, 1
53130, 980, 132, -35, 0, 70, -70, -781, 253, -4
53131, 980, 132, -36, -70, 140, 0, -780, 261, 3
53132, 980, 132, -36, 0, 70, -70, -775, 258, 4
53133, 980, 132, -35, 0, 210, -70, -783, 261, -4
53134, 980, 131, -36, 0, 140, -70, -780, 261, 1
53135, 980, 132, -36, 0, 140, -70, -780, 259, 0
53136, 981, 132, -37, -70, 210, -70, -781, 247, -3
53137, 980, 132, -35, 0, 140, -70, -778, 258, 9
53138, 980, 132, -35, 0, 210, -70, -780, 256, 4
53139, 981, 132, -35, 0, 210, -70, -781, 265, 1
53140, 980, 131, -36, 0, 140, -70, -783, 253, -1
53141, 980, 132, -35, 0, 140, -70, -780, 258, 12
53142, 980, 132, -35, -70, 140, -70, -784, 249, 1
53143, 981, 132, -35, 0, 210, -70, -778, 265, -6
53144, 980, 132, -35, 0, 140, -70, -780, 259, 0
53145, 981, 132, -35, 0, 210, -70, -784, 250, 1
53146, 980, 133, -36, 0, 210, -70, -778, 261, 0
53147, 980, 132, -36, 0, 210, -70, -781, 268, 0
53148, 981, 132, -35, 0, 140, -70, -780, 255, 3
53149, 981, 132, -36, -70, 140, -70, -783, 262, 9
53150, 981, 132, -36, 0, 140, -70, -780, 256, -6
53151, 980, 132, -36, 0, 210, -70, -777, 261, 9
53152, 981, 132, -35, 0, 210, -70, -784, 252, -3
53153, 980, 132, -35, 0, 140, -140, -778, 265, 6
53154, 980, 132, -36, 0, 140, -70, -780, 255, -6
53155, 980, 132, -35, 0, 140, -70, -786, 262, 0
53156, 980, 132, -35, 0, 210, -70, -781, 250, -1
53157, 980, 132, -35, 0, 140, -70, -778, 259, 0
53158, 980, 131, -35, 0, 140, -70, -783, 255, -6
53159, 981, 132, -35, 0, 210, -70, -783, 261, -1
53160, 980, 132, -35, 0, 140, -70, -781, 253, 1
53161, 981, 132, -35, 0, 70, 0, -787, 247, 3
53162, 980, 132, -35, -70, 140, -70, -780, 252, 6
53163, 980, 132, -36, 70, 140, -70, -781, 255, 3
53164, 981, 132, -36, 0, 140, -70, -781, 255, 6
53165, 981, 132, -35, 0, 210, -70, -789, 265, 4
53166, 980, 132, -34, 70, 210, -70, -780, 253, 7
53167, 981, 132, -35, 0, 140, -70, -781, 262, 6
53168, 981, 132, -35, 0, 70, -70, -786, 249, 4
53169, 980, 132, -35, 0, 140, -70, -781, 253, 3
53170, 981, 132, -36, 0, 140, -70, -780, 252, 6
53171, 980, 132, -36, -70, 140, -70, -787, 261, 6
53172, 980, 132, -36, 0, 140, -70, -772, 255, 3
53173, 981, 132, -35, -70, 140, -70, -789, 261, -7
53174, 980, 131, -35, -70, 140, -70, -780, 253, 4
53175, 981, 132, -36, 0, 140, -70, -778, 264, 7
53176, 980, 132, -35, -70, 210, -70, -774, 255, 1
53177, 981, 132, -35, 0, 140, -70, -784, 256, 4
53178, 980, 132, -35, 70, 140, -70, -778, 252, -4
53179, 981, 132, -35, 70, 210, -140, -777, 259, 6
53180, 980, 132, -35, 0, 210, -70, -777, 255, -4
53181, 980, 132, -35, 0, 140, -70, -775, 256, 9
53182, 980, 132, -35, 0, 140, -70, -777, 252, 4
53183, 981, 132, -35, -70, 140, -70, -787, 259, -1
53184, 981, 132, -35, 0, 140, -70, -781, 256, 4
53185, 981, 133, -34, 0, 140, -70, -778, 265, 9
53186, 981, 132, -36, 0, 210, -70, -789, 259, 0
53187, 981, 132, -36, 0, 140, -70, -781, 253, -9
53188, 981, 131, -35, -70, 140, -70, -781, 256, 9
53189, 981, 132, -35, -70, 210, -70, -783, 253, 3
53190, 981, 132, -35, 0, 210, -70, -787, 253, 3
53191, 981, 132, -35, 0, 140, -70, -780, 255, 1
53192, 981, 132, -36, 0, 140, -70, -781, 253, 6
53193, 980, 132, -35, 0, 140, -70, -781, 265, -1
53194, 981, 132, -35, 0, 140, -70, -784, 258, 4
53195, 981, 132, -35, 0, 280, -70, -784, 262, 0
53196, 981, 132, -36, 0, 210, -70, -771, 258, 4
53197, 981, 132, -35, 70, 70, -70, -781, 255, 1
53198, 980, 132, -36, 70, 140, -70, -777, 259, -3
53199, 981, 132, -35, 0, 140, 0, -771, 258, -1
53200, 980, 131, -35, 0, 140, -70, -781, 258, 3
53201, 980, 132, -35, 70, 140, -70, -777, 255, 13
53202, 980, 131, -35, 0, 140, -70, -783, 250, 1
53203, 980, 132, -35, 0, 210, -70, -781, 261, 4
53204, 980, 132, -35, 0, 140, -70, -789, 256, -1
53205, 980, 131, -36, 0, 140, -70, -787, 262, -4
53206, 980, 132, -36, 70, 140, -70, -777, 262, 4
53207, 980, 132, -36, 0, 140, -70, -784, 264, -9
53208, 981, 132, -35, 0, 210, -70, -778, 262, 3
53209, 981, 132, -36, 0, 140, -70, -781, 259, -1
53210, 981, 132, -35, 0, 140, -70, -781, 265, 3
53211, 979, 132, -35, 0, 140, -70, -772, 255, 7
53212, 981, 132, -35, 0, 210, -70, -784, 267, 6
53213, 981, 132, -35, 0, 70, -70, -780, 249, 1
53214, 981, 131, -36, -70, 140, -70, -781, 252, 0
53215, 981, 132, -35, 0, 70, -70, -781, 253, -3
53216, 980, 132, -35, 0, 140, -70, -780, 258, 1
53217, 980, 132, -35, 0, 210, -70, -775, 258, 1
53218, 981, 132, -35, 0, 210, -70, -784, 258, 3
53219, 980, 132, -36, 0, 210, -70, -792, 262, -6
53220, 981, 132, -35, 0, 140, 0, -781, 252, 4
53221, 980, 132, -34, 0, 210, -70, -777, 259, -7
53222, 980, 131, -35, 70, 210, -70, -787, 265, -6
53223, 981, 132, -35, -70, 70, -70, -780, 252, 7
53224, 981, 132, -35, 0, 140, -70, -781, 256, 6
53225, 980, 131, -36, 0, 140, -70, -780, 253, 7
53226, 980, 132, -35, 0, 140, -70, -775, 255, -3
53227, 981, 132, -34, 70, 140, -70, -772, 247, -3
53228, 981, 132, -35, -70, 140, -70, -781, 253, -1
53229, 981, 132, -35, -70, 140, 0, -783, 250, -4
53230, 981, 131, -34, 0, 210, -70, -772, 258, -1
53231, 981, 132, -35, 0, 210, -70, -783, 256, 3
53232, 981, 132, -36, 0, 140, -70, -784, 259, -4
53233, 981, 132, -34, 0, 140, -140, -783, 255, -9
53234, 980, 132, -35, 0, 210, -70, -781, 264, -1
53235, 981, 132, -35, 0, 140, -70, -778, 253, -3
53236, 981, 132, -35, 0, 140, -70, -784, 252, 0
53237, 980, 132, -35, 70, 140, -70, -780, 258, -1
53238, 980, 132, -34, 70, 140, -70, -774, 255, -7
53239, 981, 132, -35, 0, 140, -70, -777, 252, 0
53240, 980, 132, -36, 0, 210, -70, -780, 258, -1
53241, 980, 132, -36, 0, 70, -70, -775, 255, 0
53242, 980, 132, -35, 0, 140, -70, -781, 259, -4
53243, 981, 132, -36, -70, 140, -70, -777, 259, 6
53244, 981, 132, -35, -70, 210, -70, -783, 253, -3
53245, 980, 132, -34, 0, 140, -70, -789, 261, 0
53246, 980, 132, -35, -70, 140, -70, -775, 252, -7
53247, 980, 132, -35, 0, 140, -70, -783, 256, 1
53248, 980, 132, -36, 0, 210, -70, -778, 252, -3
53249, 980, 132, -35, 0, 140, -70, -780, 265, 0
53250, 980, 132, -35, 70, 140, -70, -783, 261, -7
53251, 981, 133, -35, 0, 140, -70, -778, 261, -6
53252, 980, 132, -35, 70, 140, -70, -784, 250, -4
53253, 980, 132, -36, 0, 140, -70, -783, 256, -3
53254, 980, 132, -35, 0, 140, -70, -778, 256, -4
53255, 981, 133, -35, 70, 140, -70, -784, 264, 3
53256, 981, 132, -36, 0, 140, -70, -778, 259, -1
53257, 981, 132, -35, 0, 140, -70, -778, 258, 1
53258, 980, 130, -35, 0, 140, -70, -780, 256, -1
53259, 980, 132, -36, 0, 210, 0, -789, 252, -4
53260, 980, 132, -34, -70, 140, -70, -778, 256, -12
53261, 980, 132, -35, 0, 140, -70, -778, 259, -3
53262, 981, 132, -35, 0, 140, -70, -783, 255, -6
53263, 981, 132, -36, -70, 140, -70, -793, 262, 1
53264, 980, 132, -35, 0, 140, -70, -781, 255, -10
53265, 980, 132, -35, 0, 140, 0, -778, 253, 6
53266, 981, 132, -35, 70, 140, -70, -787, 258, 3
53267, 980, 132, -36, -70, 140, -70, -780, 255, 7
53268, 980, 132, -35, 0, 210, -70, -780, 255, -1
53269, 980, 132, -35, 0, 140, -70, -786, 262, 3
53270, 981, 132, -35, -70, 140, -70, -778, 255, 0
53271, 979, 132, -35, 0, 140, -70, -775, 256, 0
53272, 980, 132, -35, 0, 210, -70, -786, 256, 1
53273, 980, 132, -34, 0, 140, -70, -786, 255, 0
53274, 980, 132, -35, 0, 140, -70, -777, 261, -3
53275, 980, 132, -36, 0, 140, -70, -784, 264, -6
53276, 980, 132, -36, 0, 210, -70, -787, 253, 0
53277, 980, 131, -36, 70, 210, -70, -778, 256, 4
53278, 980, 132, -35, -70, 140, 0, -780, 255, 1
53279, 981, 132, -35, 0, 140, -70, -786, 255, -15
53280, 981, 132, -36, 0, 210, -70, -772, 262, -4
53281, 981, 132, -35, 0, 210, -70, -783, 250, 0
53282, 981, 132, -35, 0, 140, -70, -778, 255, -6
53283, 981, 132, -35, 0, 140, -70, -789, 262, 4
53284, 980, 132, -35, 70, 210, -70, -777, 256, 3
53285, 980, 132, -35, 70, 140, -70, -781, 264, -1
53286, 980, 132, -35, 0, 140, -70, -790, 258, -7
53287, 981, 132, -36, -70, 140, -70, -786, 255, -3
53288, 980, 132, -35, 70, 140, -70, -775, 258, 6
53289, 980, 132, -35, 0, 210, -70, -778, 259, -6
53290, 980, 132, -36, 0, 210, -70, -780, 253, -1
53291, 981, 132, -36, 0, 210, -70, -792, 259, 1
53292, 981, 133, -35, 70, 210, -70, -786, 270, 0
53293, 981, 132, -36, 70, 210, -70, -778, 268, 7
53294, 980, 132, -34, 70, 210, -70, -786, 247, 0
53295, 980, 132, -35, 0, 210, -70, -781, 267, -1
53296, 980, 132, -35, 0, 210, -70, -784, 247, -1
53297, 980, 132, -35, -70, 70, -70, -774, 256, -3
53298, 981, 132, -35, 0, 210, -70, -781, 258, 0
53299, 980, 132, -35, 0, 140, -70, -789, 264, 0
53300, 980, 132, -35, 0, 140, -140, -781, 256, -3
53301, 980, 132, -35, 0, 140, -70, -783, 262, 0
53302, 980, 132, -36, 0, 140, -70, -780, 256, 3
53303, 981, 132, -36, 0, 140, -70, -786, 255, 6
53304, 981, 132, -35, 0, 70, -70, -781, 262, -6
53305, 980, 132, -35, 0, 140, -70, -777, 258, 1
53306, 981, 132, -34, 70, 210, -70, -780, 258, -9
53307, 980, 132, -36, 70, 210, -70, -781, 256, 1
53308, 980, 132, -35, -70, 140, -70, -790, 261, -7
53309, 980, 132, -36, 0, 140, -70, -775, 270, 9
53310, 981, 132, -35, 0, 140, -70, -781, 258, -4
53311, 981, 132, -35, 0, 210, -70, -783, 255, 0
53312, 980, 132, -35, 0, 140, -70, -790, 258, -3
53313, 980, 131, -35, -70, 140, -70, -781, 256, 6
53314, 981, 132, -35, -70, 210, -70, -777, 259, 6
53315, 980, 132, -35, 0, 210, -70, -784, 258, 1
53316, 980, 132, -34, 70, 140, -70, -787, 262, -9
53317, 980, 132, -35, 70, 140, 0, -778, 261, 4
53318, 980, 132, -35, 0, 140, 0, -778, 256, 1
53319, 980, 132, -36, -70, 70, -70, -775, 265, 1
53320, 980, 132, -36, 0, 210, -70, -783, 259, -3
53321, 981, 132, -34, 70, 140, 0, -780, 250, -9
53322, 981, 132, -35, 0, 140, -70, -786, 262, -6
53323, 981, 132, -36, 0, 140, -70, -777, 268, 9
53324, 980, 132, -36, -70, 140, -70, -774, 258, 6
53325, 981, 132, -34, 0, 210, -70, -787, 261, -13
53326, 981, 133, -35, 0, 140, -70, -780, 267, 1
53327, 981, 132, -36, 0, 210, -70, -789, 252, 3
53328, 980, 132, -36, -70, 210, -70, -784, 253, -1
53329, 980, 132, -35, 0, 210, -70, -783, 256, 4
53330, 980, 132, -35, 0, 140, -70, -789, 262, 9
53331, 981, 132, -35, 0, 70, -70, -781, 255, -6
53332, 981, 132, -35, 0, 140, -70, -784, 258, 1
53333, 981, 132, -35, 0, 140, -70, -775, 253, 1
53334, 980, 132, -36, 0, 140, -70, -784, 256, 6
53335, 980, 132, -35, 0, 280, -70, -777, 252, -1
53336, 980, 132, -35, 0, 210, -70, -781, 259, 0
53337, 981, 132, -35, 0, 140, -70, -783, 250, 4
53338, 981, 132, -35, 0, 140, -70, -792, 252, 7
53339, 980, 132, -36, 0, 210, -70, -787, 264, 3
53340, 981, 131, -35, -70, 140, -70, -778, 259, -1
53341, 980, 132, -35, 0, 140, -70, -781, 256, -1
53342, 981, 132, -35, 0, 140, -70, -784, 259, -3
53343, 981, 132, -34, 0, 140, -70, -780, 250, 3
53344, 980, 132, -36, 0, 140, -70, -780, 252, -6
53345, 981, 131, -35, -70, 210, 0, -784, 253, -4
53346, 980, 132, -35, -70, 140, -70, -780, 253, 3
53347, 980, 132, -35, 70, 210, -70, -786, 261, 0
53348, 980, 132, -35, -70, 210, -70, -780, 250, 6
53349, 980, 132, -35, 0, 210, -70, -783, 258, -3
53350, 980, 132, -35, 0, 140, -140, -786, 250, -4
53351, 981, 133, -35, 70, 210, -70, -778, 258, 4
53352, 980, 132, -35, 0, 140, -70, -784, 264, -7
53353, 981, 132, -35, 0, 140, -70, -783, 259, -1
53354, 980, 131, -35, 0, 140, -140, -777, 261, -1
53355, 981, 132, -35, 70, 210, -70, -780, 255, 1
53356, 981, 132, -35, -70, 70, -70, -775, 253, 1
53357, 980, 132, -36, 0, 140, -70, -784, 259, 4
53358, 980, 132, -35, 0, 70, -70, -780, 258, -7
53359, 981, 132, -36, 0, 210, -70, -781, 250, 3
53360, 981, 132, -35, 0, 140, -70, -787, 262, 0
53361, 980, 132, -35, 0, 140, -140, -778, 264, 3
53362, 980, 132, -35, 0, 210, -70, -775, 258, 3
53363, 981, 132, -35, 70, 140, -70, -781, 259, 0
53364, 980, 132, -34, -70, 140, -70, -786, 253, 0
53365, 980, 132, -35, 0, 210, -70, -783, 258, 3
53366, 981, 132, -35, 70, 210, -140, -772, 264, -9
53367, 981, 132, -35, 0, 70, -70, -783, 258, 0
53368, 980, 131, -35, 0, 140, -70, -769, 261, 0
53369, 979, 132, -34, 0, 210, -70, -784, 255, 1
53370, 981, 132, -35, 0, 70, -70, -774, 258, -4
53371, 980, 131, -35, 0, 210, -140, -778, 259, 9
53372, 981, 132, -35, 0, 210, -70, -786, 255, 4
53373, 981, 132, -35, 0, 140, -70, -784, 259, 7
53374, 981, 131, -35, 0, 140, -70, -784, 249, 10
53375, 981, 132, -35, 0, 210, -70, -781, 261, -1
53376, 980, 132, -36, 0, 210, -70, -780, 253, -3
53377, 981, 132, -35, -70, 140, -70, -784, 262, 3
53378, 981, 132, -35, 0, 210, -70, -784, 255, -4
53379, 981, 132, -35, -70, 70, -70, -784, 261, 3
53380, 981, 132, -35, 0, 140, -70, -778, 252, -4
53381, 980, 132, -36, 0, 140, -70, -787, 267, 0
53382, 981, 133, -35, 0, 210, -70, -772, 255, -6
53383, 980, 132, -35, -70, 210, -70, -780, 258, -7
53384, 980, 132, -35, 0, 140, -70, -792, 253, 0
53385, 979, 132, -35, 0, 210, -70, -783, 256, -6
53386, 980, 132, -37, -70, 140, -70, -786, 262, -3
53387, 981, 132, -35, 0, 210, -140, -786, 255, -9
53388, 981, 132, -35, 0, 140, -70, -783, 262, -3
53389, 980, 132, -35, 0, 210, -70, -778, 261, 10
53390, 981, 132, -34, 0, 210, -70, -774, 259, 0
53391, 978, 133, -35, 0, 140, -70, -781, 256, -1
53392, 982, 132, -35, 0, 210, -70, -781, 252, -1
53393, 980, 132, -35, 70, 140, -70, -784, 259, 3
53394, 981, 132, -35, 70, 140, -70, -775, 259, 7
53395, 982, 132, -35, 0, 210, -70, -778, 255, -3
53396, 981, 132, -36, 0, 140, -70, -786, 255, -6
53397, 981, 132, -35, 70, 210, -140, -784, 259, 12
53398, 980, 132, -35, 70, 140, -70, -778, 256, 1
53399, 980, 132, -35, -70, 140, -70, -789, 253, 4
53400, 980, 132, -36, 0, 140, -70, -783, 253, 3
53401, 980, 132, -35, 0, 140, -70, -781, 247, 7
53402, 980, 132, -35, 0, 210, -70, -777, 265, -1
53403, 980, 132, -35, 0, 140, -140, -778, 261, -16
53404, 980, 132, -35, -70, 140, -70, -781, 258, 0
53405, 980, 132, -35, 0, 140, 0, -780, 253, 4
53406, 980, 132, -35, 70, 140, -70, -783, 261, 4
53407, 981, 132, -35, 0, 210, -70, -786, 249, 4
53408, 981, 132, -36, 0, 70, -70, -774, 261, 3
53409, 980, 132, -34, 70, 140, -70, -777, 252, 0
53410, 981, 132, -34, 0, 210, -70, -790, 264, 1
53411, 980, 132, -34, 70, 210, -70, -789, 250, 0
53412, 981, 132, -35, 0, 140, -70, -784, 264, 4
53413, 980, 132, -35, 70, 140, -70, -783, 267, -13
53414, 980, 131, -35, 0, 140, -70, -774, 259, -1
53415, 980, 131, -35, 0, 140, -70, -786, 262, 0
53416, 980, 132, -35, 70, 210, -70, -786, 256, 1
53417, 980, 132, -35, 0, 140, -70, -786, 262, 7
53418, 981, 132, -36, 0, 140, -70, -784, 255, -1
53419, 981, 131, -36, 0, 140, 0, -774, 255, 6
53420, 981, 132, -35, 0, 140, -70, -775, 264, -6
53421, 980, 132, -35, 0, 140, -70, -790, 258, 7
53422, 981, 132, -35, 70, 70, -70, -777, 259, -3
53423, 981, 132, -35, 70, 140, -70, -784, 256, -1
53424, 981, 132, -34, -70, 140, -140, -786, 262, 3
53425, 980, 131, -34, 0, 140, -70, -783, 258, 4
53426, 981, 132, -34, 0, 140, -70, -786, 253, 1
53427, 981, 132, -35, 0, 140, -70, -772, 250, 3
53428, 980, 132, -36, 0, 140, -70, -786, 264, -1
53429, 981, 132, -36, 0, 140, -70, -778, 250, 0
53430, 980, 132, -35, 0, 210, -70, -777, 256, 3
53431, 980, 131, -35, 0, 140, -70, -784, 259, 1
53432, 980, 132, -35, 0, 210, -70, -789, 256, -6
53433, 980, 132, -35, 0, 140, -70, -780, 253, 9
53434, 980, 132, -34, 0, 140, -70, -783, 256, 6
53435, 981, 132, -34, 0, 140, -70, -787, 261, 0
53436, 980, 132, -36, 0, 140, -70, -778, 258, 0
53437, 980, 132, -34, 0, 140, -70, -778, 261, 1
53438, 981, 132, -36, 0, 140, -70, -784, 252, 4
53439, 981, 132, -35, 0, 140, -70, -784, 259, 7
53440, 981, 132, -35, 0, 140, -70, -783, 267, -1
53441, 980, 133, -35, -70, 210, -70, -775, 259, -3
53442, 980, 133, -35, 0, 140, -70, -777, 255, 1
53443, 981, 132, -35, 0, 140, -70, -783, 265, 3
53444, 980, 132, -35, 70, 140, -70, -783, 261, 0
53445, 981, 132, -35, 0, 140, -70, -780, 265, 0
53446, 980, 132, -35, 0, 210, -70, -778, 255, -1
53447, 980, 132, -35, 70, 140, -70, -787, 252, 0
53448, 980, 131, -36, 0, 210, -70, -778, 264, 6
53449, 980, 133, -35, 0, 140, 0, -780, 261, 1
53450, 981, 132, -34, 0, 140, -70, -781, 258, 3
53451, 980, 132, -35, 0, 140, -70, -787, 262, 1
53452, 981, 132, -34, -70, 140, -70, -781, 259, -4
53453, 981, 132, -35, 0, 210, -70, -780, 258, 4
53454, 980, 132, -35, -70, 210, -70, -787, 262, 0
53455, 981, 132, -35, 70, 210, -70, -784, 259, 9
53456, 980, 132, -36, -70, 210, -70, -783, 258, 0
53457, 982, 133, -35, 0, 140, -70, -783, 255, 6
53458, 997, 129, -39, -70, 770, -70, -786, 259, 6
53459, 1016, 153, -87, -490, 2310, -210, -783, 259, 6
53460, 975, 139, -71, -770, 4130, -280, -777, 252, 4
53461, 947, 130, 31, 0, 1050, -210, -784, 256, 3
53462, 917, 142, 10, 350, -1750, 0, -784, 255, 6
53463, 984, 123, -32, 490, -3150, 350, -777, 259, 4
53464, 1034, 127, -62, 420, -2310, 70, -786, 261, -4
53465, 986, 144, -69, 210, -560, -140, -786, 259, 1
53466, 1000, 118, -30, -210, 1470, -140, -787, 259, -1
53467, 955, 129, -12, -70, 1050, -210, -781, 252, 1
53468, 946, 140, -12, 70, -210, -70, -778, 250, -1
53469, 991, 124, -30, 140, -1050, 70, -784, 267, 6
53470, 1001, 130, -49, 210, -630, -70, -787, 259, 4
53471, 989, 134, -40, -140, 770, -70, -787, 264, 4
53472, 983, 123, -26, -70, 840, -140, -784, 261, 4
53473, 963, 134, -23, -70, 280, -140, -784, 253, 7
53474, 968, 132, -27, 70, -350, 0, -781, 253, 1
53475, 986, 134, -46, 70, 70, -70, -780, 264, 0
53476, 981, 135, -40, 0, 560, -70, -781, 255, -7
53477, 984, 131, -32, -70, 700, -70, -787, 265, -1
53478, 975, 129, -29, -70, 560, -70, -781, 259, 1
53479, 974, 133, -29, 0, 210, 0, -783, 262, 6
53480, 985, 133, -40, 70, 0, -70, -774, 261, 1
53481, 985, 132, -39, 0, 280, -70, -775, 259, 1
53482, 980, 133, -33, 0, 350, -70, -783, 255, 0
53483, 977, 132, -32, 0, 210, -70, -771, 256, -4
53484, 979, 131, -32, 70, 140, -70, -784, 253, -7
53485, 981, 133, -38, 0, 70, -70, -790, 259, 4
53486, 986, 132, -41, 0, 350, -70, -780, 264, -9
53487, 983, 132, -36, -70, 560, -70, -775, 258, 0
53488, 977, 133, -35, -70, 630, -140, -780, 265, -4
53489, 985, 132, -35, -70, 700, -70, -781, 264, 1
53490, 983, 133, -38, -70, 910, -140, -787, 261, 4
53491, 985, 133, -39, -210, 1120, -140, -786, 264, -1
53492, 984, 132, -36, -210, 1470, -210, -777, 262, -12
53493, 980, 132, -32, -140, 1470, -140, -778, 262, 3
53494, 979, 131, -31, -140, 1260, -140, -777, 252, -16
53495, 976, 130, -30, -140, 1050, -140, -787, 262, 1
53496, 974, 129, -25, -70, 770, -140, -781, 262, -9
53497, 975, 131, -25, 0, 350, -70, -781, 258, -1
53498, 978, 132, -28, 140, -140, -140, -784, 258, 0
53499, 984, 132, -35, 0, 0, -70, -783, 267, 0
53500, 984, 131, -35, 70, 210, -70, -786, 264, 0
53501, 983, 131, -34, 0, 280, -140, -780, 264, 0
53502, 981, 131, -29, 0, 210, -140, -772, 253, -4
53503, 981, 131, -32, 70, 0, -140, -780, 258, -9
53504, 984, 131, -32, 140, 140, -210, -783, 253, -15
53505, 987, 130, -31, 0, 140, -350, -780, 256, 1
53506, 990, 129, -32, 140, 140, -420, -789, 256, 0
53507, 1000, 130, -34, 210, 280, -560, -784, 261, 6
53508, 1033, 122, -34, 140, 1260, -1400, -786, 261, -9
53509, 1054, 116, -35, 210, 2030, -2170, -778, 258, 1
53510, 1059, 116, -43, 280, 2590, -3220, -784, 259, -3
53511, 1052, 123, -48, 0, 2870, -4270, -780, 259, 4
53512, 1052, 130, -53, -560, 3290, -6300, -778, 262, -4
53513, 1061, 125, -52, -770, 3990, -7350, -787, 261, -9
53514, 1060, 124, -49, -980, 4900, -8400, -777, 259, -13
53515, 1064, 125, -45, -1120, 6020, -9450, -786, 262, 0
53516, 1063, 125, -43, -1050, 7000, -10570, -777, 262, -4
53517, 1045, 127, -35, -1190, 8190, -12530, -774, 262, 0
53518, 1043, 132, -32, -1120, 8540, -13440, -778, 265, -1
53519, 1040, 137, -32, -1260, 8820, -14280, -780, 267, -1
53520, 1050, 139, -34, -1470, 9100, -15260, -783, 264, 0
53521, 1066, 137, -35, -1470, 9450, -16310, -781, 264, 7
53522, 1110, 125, -32, -1610, 10570, -19390, -781, 265, -4
53523, 1122, 125, -29, -1680, 10920, -21280, -775, 271, 1
53524, 1127, 131, -28, -1750, 11060, -23380, -778, 270, -6
53525, 1124, 133, -25, -1890, 10780, -25550, -780, 271, -10
53526, 1118, 137, -19, -2380, 9940, -29750, -777, 268, -13
53527, 1089, 151, -22, -2520, 9520, -31570, -769, 276, -10
53528, 1075, 157, -24, -2800, 9240, -33250, -775, 286, -9
53529, 1070, 161, -21, -2940, 9030, -34790, -774, 264, -3
53530, 1066, 163, -13, -3010, 9170, -36120, -768, 288, -7
53531, 1048, 172, -3, -2870, 9800, -38500, -774, 277, -3
53532, 1042, 178, -2, -2870, 10080, -39620, -765, 289, -4
53533, 1044, 186, 1, -2870, 9940, -40810, -769, 280, -7
53534, 1041, 191, 4, -2800, 9590, -41930, -766, 286, -9
53535, 1032, 196, 4, -2730, 9240, -43120, -768, 282, -7
53536, 1016, 208, 1, -3010, 7910, -45080, -754, 291, -10
53537, 1023, 214, 2, -3080, 7630, -46060, -759, 294, -4
53538, 1016, 219, 0, -3150, 7420, -46970, -747, 297, -6
53539, 1005, 225, 3, -3220, 7140, -47810, -753, 295, -3
53540, 1002, 244, 7, -3290, 6860, -49140, -760, 309, -12
53541, 965, 253, 8, -3430, 6930, -49560, -754, 307, -3
53542, 943, 264, 8, -3430, 6860, -49630, -751, 304, -4
53543, 932, 278, 10, -3500, 7070, -49420, -745, 318, -4
53544, 915, 292, 14, -3500, 7420, -48930, -744, 312, -12
53545, 937, 342, 35, -3640, 7840, -47180, -742, 318, -3
53546, 1002, 378, 43, -3710, 9590, -45850, -735, 307, -10
53547, 1087, 409, 47, -3780, 12670, -44030, -742, 313, -6
53548, 1101, 406, 37, -3920, 16310, -42070, -738, 321, -12
53549, 1020, 362, 16, -3850, 18200, -40460, -742, 327, -3
53550, 834, 309, -29, -3640, 18410, -39060, -741, 325, -9
53551, 812, 330, -40, -3640, 18200, -38990, -739, 328, -13
53552, 824, 358, -32, -3850, 17640, -38640, -733, 331, -7
53553, 837, 374, -10, -4200, 15890, -37800, -733, 325, -13
53554, 867, 388, 36, -4690, 11200, -35910, -729, 337, -12
53555, 863, 381, 51, -4690, 11060, -35280, -726, 339, -15
53556, 854, 364, 65, -4480, 12320, -34790, -732, 330, -18
53557, 845, 352, 75, -4270, 13510, -34160, -718, 331, -9
53558, 847, 353, 77, -3850, 14210, -33320, -723, 333, -16
53559, 841, 373, 68, -3220, 15330, -31430, -732, 345, -16
