Time [mS], AccX [mg],AccY [mg],AccZ [mg],GyroX [mdps],GyroY [mdps],GyroZ [mdps],MagX [mgauss],MagY [mgauss],MagZ [mgauss]
105196, -77, 982, 172, -1680, -2030, 770, -358, 291, -204
105197, -65, 981, 170, -840, -700, 560, -355, 292, -202
105198, -63, 983, 168, -210, 770, 630, -352, 294, -205
105199, -59, 983, 169, 280, 2310, 630, -358, 280, -213
105200, -56, 980, 169, 700, 3430, 1050, -358, 282, -213
105201, -52, 979, 170, 1540, 5670, 1820, -357, 283, -213
105202, -62, 979, 169, 1960, 6580, 1960, -351, 286, -201
105203, -67, 978, 169, 2310, 7070, 2100, -352, 294, -208
105204, -65, 976, 168, 2660, 7420, 2520, -357, 289, -205
105205, -59, 972, 168, 2870, 6930, 4130, -349, 294, -201
105206, -82, 988, 175, 1960, 5180, 5530, -354, 292, -202
105207, -96, 992, 171, 350, 2730, 3290, -357, 288, -210
105208, -91, 989, 174, -1120, -1820, 770, -348, 285, -211
105209, -87, 984, 172, -1890, -2940, -210, -355, 292, -213
105210, -97, 986, 171, -1960, -3360, -980, -355, 289, -193
105211, -92, 985, 169, -2870, -3430, -4620, -351, 294, -202
105212, -63, 973, 163, -2170, -2660, -4340, -351, 294, -204
105213, -64, 979, 166, -560, -1330, -2030, -348, 291, -204
105214, -67, 983, 167, 70, 70, -1610, -348, 289, -205
105215, -64, 979, 170, 210, 3850, -630, -355, 288, -207
105216, -69, 983, 169, 210, 6510, 910, -351, 289, -207
105217, -69, 981, 168, 280, 7770, 1260, -352, 277, -213
105218, -81, 980, 169, 490, 9240, 1330, -355, 294, -202
105219, -113, 985, 164, -910, 4060, 560, -357, 297, -207
105220, -83, 977, 169, -980, -1960, -210, -348, 286, -204
105221, -101, 983, 166, -350, 7980, 1050, -346, 286, -205
105222, -49, 978, 177, -910, -1890, -70, -355, 298, -198
105223, -53, 983, 184, -910, 350, 70, -357, 285, -211
105224, -71, 990, 179, -1680, 2450, -140, -361, 291, -204
105225, -140, 903, 25, -12740, 14140, -3220, -352, 280, -207
105226, -121, 986, 148, -2870, 4270, -350, -355, 291, -204
105227, -80, 973, 170, -1960, 1820, -350, -345, 292, -211
105228, -82, 974, 180, -1120, 1820, 210, -354, 298, -202
105229, -83, 977, 175, -630, -140, 350, -348, 294, -213
105230, -86, 981, 172, -490, -140, 420, -354, 283, -211
105231, -80, 983, 173, -560, -140, 560, -352, 286, -214
105232, -80, 986, 171, -490, 0, 630, -357, 289, -207
105233, -73, 984, 174, -420, 350, 700, -358, 294, -204
105234, -78, 980, 172, -560, 700, 770, -352, 295, -217
105235, -83, 981, 168, -560, 700, 770, -352, 294, -211
105236, -79, 979, 170, -630, 490, 770, -355, 291, -207
105237, -80, 980, 168, -490, 350, 840, -348, 295, -207
105238, -74, 980, 173, -420, 210, 700, -349, 295, -210
105239, -68, 981, 172, -350, 140, 560, -352, 292, -207
105240, -68, 981, 171, -280, 210, 490, -358, 289, -195
105241, -65, 979, 173, -210, 350, 490, -351, 286, -211
105242, -67, 979, 174, -210, 490, 350, -357, 291, -208
105243, -66, 980, 176, -70, 700, 140, -360, 291, -205
105244, -64, 979, 178, -70, 700, 0, -358, 298, -213
105245, -65, 979, 178, 70, 700, -140, -354, 285, -214
105246, -62, 978, 179, 210, 630, -350, -348, 298, -211
105247, -63, 978, 179, 210, 560, -560, -351, 285, -214
105248, -64, 980, 181, 420, 420, -910, -357, 285, -201
105249, -62, 980, 181, 490, 490, -1120, -361, 286, -210
105250, -62, 981, 179, 490, 420, -1260, -355, 295, -204
105251, -62, 980, 180, 560, 490, -1400, -351, 295, -204
105252, -64, 979, 179, 630, 490, -1610, -348, 297, -204
105253, -60, 979, 177, 770, 490, -1960, -345, 292, -207
105254, -56, 978, 178, 840, 560, -2240, -342, 292, -207
105255, -52, 975, 175, 910, 630, -2520, -355, 283, -202
105256, -46, 973, 175, 1120, 630, -2800, -349, 285, -204
105257, -36, 972, 175, 1470, 770, -3570, -346, 283, -216
105258, -34, 973, 175, 1750, 910, -4060, -355, 292, -205
105259, -33, 975, 176, 2030, 980, -4550, -357, 289, -217
105260, -33, 977, 175, 2380, 980, -5110, -360, 298, -208
105261, -31, 977, 175, 2660, 980, -5740, -357, 285, -210
105262, -26, 973, 179, 3010, 770, -6930, -357, 289, -213
105263, -25, 972, 180, 3430, 840, -7560, -348, 283, -199
105264, -28, 972, 181, 3640, 1050, -8120, -355, 286, -211
105265, -29, 970, 184, 4060, 1470, -8680, -355, 288, -217
105266, -35, 970, 183, 4340, 1820, -9310, -352, 277, -225
105267, -77, 1015, 135, 4690, 2100, -10360, -354, 297, -211
105268, -71, 1023, 150, 4410, 840, -10640, -363, 285, -208
105269, -259, 1060, 73, 3850, 1960, -9940, -336, 286, -214
105270, -282, 1094, 52, 2730, 2520, -8190, -351, 285, -214
105271, -370, 1027, -10, -1120, -490, -2730, -346, 280, -202
105272, -352, 856, 20, -2240, -1960, 420, -349, 289, -204
105273, -232, 686, 104, -1680, -630, 3290, -343, 286, -213
105274, -216, 725, 127, -70, 2170, 5810, -348, 276, -214
105275, -182, 879, 162, 1820, 4760, 7000, -357, 288, -207
105276, -153, 1236, 215, 1540, 1750, 7070, -339, 277, -208
105277, -127, 1279, 221, -910, -4690, 6160, -343, 288, -210
105278, -41, 1164, 252, -3640, -11480, 4830, -357, 291, -208
105279, -25, 995, 251, -5810, -16660, 3780, -357, 288, -204
105280, 15, 854, 270, -6370, -15120, 2030, -346, 291, -216
105281, 38, 801, 295, -3360, -9520, 1470, -354, 295, -210
105282, 46, 872, 299, -910, -3150, 1470, -349, 282, -208
105283, 71, 953, 308, 1400, 3150, 1470, -355, 289, -210
105284, 35, 1016, 290, 2730, 6860, 1400, -349, 289, -208
105285, -58, 1019, 245, 2310, 7420, -420, -352, 289, -210
105286, -77, 996, 233, 1400, 5880, -1610, -351, 288, -207
105287, -100, 981, 223, 280, 4130, -2240, -351, 289, -205
105288, -104, 967, 226, -420, 3290, -2310, -351, 286, -204
105289, -132, 964, 221, -910, 2450, -1610, -342, 292, -205
105290, -164, 986, 195, -770, 2590, 210, -357, 282, -210
105291, -171, 971, 190, -210, 3290, 910, -355, 291, -202
105292, -177, 940, 180, 210, 3850, 1540, -351, 289, -213
105293, -149, 926, 183, 280, 4830, 1820, -355, 297, -210
105294, -120, 972, 166, -700, 4340, 2730, -348, 286, -202
105295, -104, 1027, 162, -1610, 3710, 3290, -358, 285, -202
105296, -117, 1021, 164, -2310, 3920, 3780, -352, 286, -205
105297, -144, 1018, 152, -2800, 4620, 4340, -355, 283, -208
105298, -140, 1003, 148, -2870, 6230, 4900, -342, 280, -202
105299, -152, 962, 134, -2590, 9730, 6650, -357, 289, -201
105300, -164, 969, 123, -2590, 10780, 7910, -354, 283, -205
105301, -163, 990, 115, -2800, 11620, 9100, -360, 292, -207
105302, -179, 1012, 101, -3430, 12040, 10430, -352, 288, -202
105303, -184, 1014, 99, -4060, 12320, 11620, -352, 291, -204
105304, -174, 1002, 109, -5600, 12180, 13650, -358, 289, -207
105305, -162, 997, 115, -6230, 12110, 14560, -357, 301, -199
105306, -152, 989, 122, -6650, 11970, 15470, -361, 294, -204
105307, -157, 981, 125, -6860, 11550, 16310, -360, 294, -199
105308, -154, 981, 129, -7280, 9380, 17570, -348, 291, -198
105309, -136, 993, 135, -7630, 7770, 17920, -358, 301, -201
105310, -127, 994, 136, -8050, 5740, 18200, -346, 291, -207
105311, -110, 991, 145, -8470, 3640, 18270, -361, 292, -198
105312, -100, 992, 149, -8890, 1680, 18340, -358, 288, -201
105313, -73, 983, 160, -9310, -1050, 18270, -357, 280, -202
105314, -58, 975, 166, -9310, -1470, 18200, -364, 294, -193
105315, -49, 971, 167, -9100, -1400, 18200, -355, 294, -201
105316, -38, 969, 171, -8960, -1190, 18200, -357, 292, -204
105317, -31, 973, 172, -8820, -1050, 18200, -364, 300, -204
105318, -24, 984, 171, -8820, -700, 17990, -372, 303, -199
105319, -20, 985, 172, -8890, -630, 17780, -361, 297, -208
105320, -16, 985, 173, -8820, -560, 17570, -370, 303, -207
105321, -9, 981, 180, -8750, -420, 17360, -369, 294, -208
105322, -7, 973, 184, -8400, -490, 16870, -367, 301, -216
105323, -3, 963, 193, -8120, -770, 16520, -369, 312, -205
105324, 1, 963, 195, -7910, -1050, 16240, -376, 306, -204
105325, 4, 964, 196, -7700, -1400, 15890, -370, 300, -208
105326, 11, 967, 200, -7490, -1680, 15400, -364, 298, -205
105327, 26, 978, 205, -7140, -1890, 14560, -366, 301, -211
105328, 31, 977, 207, -7140, -1610, 14140, -369, 303, -211
105329, 38, 975, 212, -6930, -1330, 13790, -373, 306, -214
105330, 42, 976, 214, -6720, -1190, 13300, -376, 306, -199
105331, 45, 975, 216, -6580, -1120, 12880, -370, 304, -208
105332, 46, 968, 214, -6020, -980, 11690, -375, 306, -204
105333, 47, 966, 212, -5670, -840, 11060, -375, 309, -211
105334, 47, 964, 210, -5390, -770, 10570, -379, 301, -205
105335, 44, 964, 208, -5110, -770, 10150, -387, 300, -216
105336, 41, 971, 206, -4550, -700, 9380, -387, 303, -205
105337, 35, 975, 209, -4410, -840, 8960, -381, 309, -217
105338, 36, 977, 210, -4270, -1190, 8540, -379, 310, -213
105339, 40, 976, 213, -3990, -1190, 8190, -379, 301, -210
105340, 44, 973, 216, -3920, -1120, 7770, -385, 312, -214
105341, 50, 969, 217, -3500, -700, 7140, -375, 307, -211
105342, 49, 969, 217, -3500, -490, 6790, -387, 304, -211
105343, 46, 971, 217, -3290, -350, 6510, -373, 300, -210
105344, 44, 974, 217, -3150, -280, 6160, -385, 313, -213
105345, 42, 976, 217, -3010, -350, 5810, -387, 310, -216
105346, 38, 974, 217, -2660, -700, 5180, -385, 310, -220
105347, 35, 969, 217, -2450, -770, 4830, -387, 313, -208
105348, 34, 970, 214, -2310, -980, 4620, -378, 307, -208
105349, 34, 970, 215, -2240, -980, 4480, -379, 309, -208
105350, 30, 972, 216, -2030, -1050, 4270, -378, 313, -210
105351, 30, 977, 217, -2100, -1050, 4200, -382, 315, -222
105352, 32, 978, 220, -2100, -910, 4130, -388, 309, -205
105353, 30, 977, 220, -2030, -700, 3990, -382, 307, -217
105354, 30, 974, 222, -2030, -560, 3990, -384, 313, -217
105355, 32, 971, 225, -1960, -490, 3850, -376, 307, -216
105356, 30, 970, 226, -1890, -630, 3780, -381, 309, -207
105357, 30, 969, 227, -1820, -700, 3640, -384, 304, -214
105358, 33, 971, 228, -1820, -840, 3640, -387, 309, -214
105359, 38, 971, 231, -1750, -910, 3430, -384, 313, -222
105360, 39, 970, 232, -1680, -420, 3290, -375, 301, -222
105361, 31, 970, 229, -1540, -70, 3220, -381, 304, -213
105362, 26, 971, 226, -1610, 140, 3290, -387, 319, -219
105363, 18, 974, 223, -1680, 210, 3430, -379, 315, -213
105364, 15, 975, 220, -1820, 490, 3780, -388, 304, -219
105365, 22, 977, 222, -1890, 770, 3920, -378, 303, -216
105366, 23, 983, 221, -1890, 1260, 4130, -387, 304, -211
105367, 28, 986, 227, -1960, 1540, 4270, -376, 310, -216
105368, 22, 984, 223, -1960, 1750, 4410, -385, 325, -216
105369, 24, 970, 218, -2240, 1540, 4480, -378, 312, -228
105370, 34, 966, 216, -2450, 1400, 4480, -382, 315, -211
105371, 32, 965, 213, -2450, 1330, 4550, -378, 313, -216
105372, 35, 963, 218, -2380, 1190, 4550, -381, 301, -208
105373, 28, 968, 217, -2310, 1260, 4620, -381, 309, -213
105374, 28, 981, 217, -2030, 980, 4620, -384, 309, -219
105375, 29, 979, 217, -1960, 630, 4550, -379, 309, -214
105376, 26, 974, 216, -2030, 70, 4550, -385, 304, -207
105377, 31, 973, 216, -2240, -560, 4410, -388, 309, -208
105378, 43, 975, 218, -2520, -1120, 4480, -384, 301, -223
105379, 42, 973, 220, -2520, -770, 4550, -396, 315, -223
105380, 41, 972, 223, -2450, -420, 4550, -391, 316, -222
105381, 36, 975, 221, -2380, -280, 4690, -388, 319, -219
105382, 35, 974, 223, -2240, -280, 4690, -393, 315, -216
105383, 32, 969, 223, -2380, -770, 4830, -390, 315, -210
105384, 35, 971, 224, -2450, -1050, 4830, -385, 318, -214
105385, 41, 975, 226, -2590, -1120, 4900, -384, 310, -223
105386, 43, 976, 227, -2660, -1120, 4970, -390, 306, -214
105387, 41, 974, 228, -2730, -840, 5250, -387, 315, -220
105388, 38, 971, 230, -2800, -630, 5320, -393, 316, -207
105389, 35, 970, 231, -2730, -700, 5460, -399, 324, -225
105390, 35, 967, 230, -2730, -770, 5530, -385, 315, -213
105391, 35, 967, 231, -2800, -980, 5670, -390, 318, -214
105392, 42, 974, 234, -3080, -1260, 5880, -396, 316, -216
105393, 44, 974, 234, -3150, -1190, 6020, -391, 315, -222
105394, 42, 973, 235, -3150, -1120, 6160, -391, 321, -222
105395, 40, 971, 234, -3360, -980, 6370, -396, 315, -219
105396, 40, 971, 235, -3500, -980, 6510, -387, 312, -220
105397, 40, 966, 235, -3500, -1050, 6860, -396, 319, -214
105398, 40, 966, 235, -3570, -1190, 7000, -388, 318, -208
105399, 41, 970, 236, -3640, -1260, 7210, -387, 315, -207
105400, 43, 971, 235, -3780, -1330, 7350, -385, 310, -220
105401, 45, 972, 236, -3920, -1400, 7840, -387, 328, -220
105402, 45, 970, 235, -4060, -1330, 8050, -394, 316, -226
105403, 45, 970, 234, -4200, -1330, 8260, -390, 315, -220
105404, 46, 969, 234, -4340, -1400, 8470, -397, 315, -225
105405, 45, 967, 235, -4410, -1400, 8680, -396, 319, -228
105406, 46, 969, 234, -4620, -1470, 9170, -394, 318, -222
105407, 48, 970, 234, -4760, -1610, 9450, -396, 318, -220
105408, 48, 971, 234, -4900, -1610, 9730, -399, 307, -223
105409, 49, 970, 235, -5110, -1750, 9940, -403, 315, -234
105410, 50, 970, 234, -5250, -1750, 10220, -405, 315, -220
105411, 51, 968, 234, -5530, -1820, 10780, -403, 316, -225
105412, 53, 968, 235, -5670, -1820, 11130, -400, 313, -222
105413, 52, 967, 235, -5810, -1890, 11410, -402, 322, -219
105414, 62, 971, 237, -5880, -1890, 11760, -399, 319, -220
105415, 117, 1007, 235, -6720, 3710, 13930, -393, 324, -219
105416, -59, 958, 213, -7560, 1400, 15540, -397, 312, -223
105417, -122, 868, 201, -8050, -770, 16170, -403, 325, -229
105418, 21, 929, 216, -7910, -1330, 15610, -399, 324, -225
105419, 50, 974, 234, -7770, -4200, 14700, -402, 333, -226
105420, 269, 901, 344, -7000, -18550, 9030, -408, 319, -225
105421, 449, 911, 385, -6020, -24290, 5390, -408, 328, -232
105422, 503, 935, 386, -4270, -26670, 1820, -400, 324, -232
105423, 555, 897, 414, -1890, -25130, -1610, -408, 322, -217
105424, 503, 870, 413, 630, -21350, -4690, -409, 327, -226
105425, 547, 929, 404, 5110, -8960, -10430, -408, 321, -234
105426, 537, 927, 396, 7000, 2800, -12320, -402, 321, -225
105427, 447, 884, 380, 8470, 12950, -14000, -403, 316, -240
105428, 347, 853, 367, 9380, 19250, -15540, -402, 319, -216
105429, 294, 878, 353, 11130, 23730, -18900, -402, 321, -223
105430, 247, 927, 365, 12320, 24640, -20720, -399, 322, -213
105431, 220, 919, 375, 13720, 23800, -22680, -405, 313, -229
105432, 183, 927, 368, 14980, 21070, -24570, -403, 327, -213
105433, 171, 936, 353, 15820, 17990, -26250, -399, 312, -220
105434, 71, 904, 317, 16800, 12740, -28840, -394, 315, -207
105435, 42, 902, 301, 16660, 9170, -29960, -382, 321, -216
105436, 48, 923, 300, 16450, 6580, -30730, -390, 319, -220
105437, 74, 947, 302, 16310, 5600, -31220, -393, 312, -210
105438, 78, 951, 310, 16310, 6090, -31360, -385, 315, -211
105439, 51, 950, 313, 16520, 8260, -31150, -379, 312, -216
105440, 27, 956, 303, 16590, 9450, -30800, -393, 316, -210
105441, 3, 953, 290, 16660, 10710, -30310, -384, 304, -211
105442, -31, 942, 281, 16590, 11830, -29680, -384, 312, -208
105443, -44, 934, 272, 15820, 11690, -28490, -378, 309, -211
105444, -77, 955, 270, 15190, 10570, -27650, -379, 313, -211
105445, -105, 963, 265, 14490, 9170, -26810, -370, 309, -202
105446, -127, 966, 267, 13790, 7420, -25970, -372, 309, -204
105447, -145, 977, 266, 13160, 5180, -25200, -382, 306, -202
105448, -138, 982, 269, 11760, 2240, -23030, -367, 297, -208
105449, -132, 978, 270, 11270, 1260, -21910, -361, 304, -207
105450, -136, 973, 268, 10500, 70, -20860, -376, 301, -207
105451, -140, 971, 266, 9730, -1330, -19600, -372, 300, -210
105452, -135, 969, 265, 8960, -2660, -18480, -366, 297, -204
105453, -133, 983, 261, 7700, -4200, -16450, -364, 298, -210
105454, -117, 981, 258, 7210, -3710, -15400, -369, 298, -198
105455, -96, 969, 265, 6580, -3080, -14420, -366, 298, -202
105456, -59, 965, 266, 6160, -1540, -13370, -360, 303, -201
105457, -48, 974, 273, 5600, 4760, -11060, -364, 292, -208
105458, -42, 973, 273, 5530, 8820, -9870, -373, 301, -208
105459, -67, 965, 276, 5460, 12390, -8960, -363, 295, -201
105460, -94, 960, 273, 5250, 14140, -7980, -375, 297, -205
105461, -86, 959, 269, 5180, 14910, -7140, -357, 286, -207
105462, -89, 973, 270, 4830, 16870, -5600, -366, 297, -202
105463, -98, 978, 266, 4200, 16940, -4970, -355, 295, -211
105464, -97, 1011, 260, 3430, 16100, -4550, -358, 298, -195
105465, -98, 1037, 259, 2450, 14700, -4270, -363, 285, -204
105466, -98, 1021, 258, 1540, 13020, -3920, -358, 289, -198
105467, -91, 940, 257, 420, 10920, -3010, -357, 289, -199
105468, -91, 917, 257, 350, 10710, -2380, -364, 297, -208
105469, -99, 904, 255, 490, 10500, -1820, -357, 289, -201
105470, -109, 919, 250, 630, 9520, -1470, -357, 294, -195
105471, -94, 982, 264, 350, 7000, -910, -357, 292, -199
105472, -81, 1016, 264, 0, 5740, -770, -358, 282, -208
105473, -78, 1033, 273, -560, 4410, -770, -369, 295, -199
105474, -67, 1033, 280, -1260, 3010, -700, -355, 298, -196
105475, -63, 998, 282, -1750, 1680, -560, -355, 286, -198
105476, -78, 894, 273, -2030, 1400, -140, -366, 295, -196
105477, -74, 878, 271, -1540, 1820, 210, -358, 289, -207
105478, -44, 904, 259, -980, 3010, 700, -363, 289, -198
105479, -37, 931, 275, -350, 5250, 1190, -355, 286, -198
105480, -44, 964, 274, -70, 6860, 1400, -361, 288, -192
105481, -43, 1037, 253, -420, 7420, 1680, -361, 283, -204
105482, -60, 1039, 250, -1050, 5810, 1470, -358, 288, -196
105483, -84, 1025, 244, -1610, 3150, 1190, -357, 294, -202
105484, -86, 998, 241, -2170, 350, 980, -364, 288, -201
105485, -66, 951, 249, -2870, -3290, 630, -360, 291, -198
105486, -53, 929, 251, -2870, -3570, 700, -358, 291, -198
105487, -41, 933, 258, -2660, -2870, 910, -354, 283, -213
105488, -29, 931, 259, -2520, -1260, 1260, -354, 288, -201
105489, -36, 939, 261, -2240, 630, 1470, -348, 289, -213
105490, -29, 1005, 269, -1960, 3640, 1960, -357, 282, -201
105491, -38, 1012, 261, -1890, 4340, 1960, -346, 292, -205
105492, -32, 1007, 262, -1890, 5040, 2100, -345, 289, -204
105493, -29, 992, 262, -1820, 5880, 2170, -355, 285, -207
105494, -25, 955, 254, -1750, 6720, 2240, -355, 292, -196
105495, -50, 939, 249, -2030, 6300, 2170, -355, 283, -207
105496, -55, 945, 248, -2310, 5740, 2100, -355, 285, -210
105497, -47, 964, 259, -2380, 5460, 2170, -354, 283, -202
105498, -32, 986, 263, -2380, 5670, 2170, -352, 282, -214
105499, -35, 938, 270, -1960, 6930, 2310, -354, 280, -202
105500, -18, 960, 272, -1610, 7910, 2520, -354, 283, -208
105501, -4, 995, 264, -1330, 9590, 2660, -352, 289, -205
105502, -33, 1023, 263, -1330, 10850, 2590, -358, 285, -217
105503, -42, 1008, 249, -1890, 10360, 2240, -358, 279, -210
105504, -44, 930, 237, -4270, 3850, 1190, -349, 286, -202
105505, -31, 918, 249, -5600, 420, 770, -357, 285, -207
105506, -48, 876, 295, -6230, -1960, 350, -352, 277, -199
105507, 10, 926, 327, -5740, -1470, 490, -360, 280, -202
105508, 82, 987, 349, -3990, 4830, 1960, -357, 285, -205
105509, 28, 880, 347, 1750, 22750, 2590, -346, 279, -210
105510, -10, 861, 318, 3640, 27020, 3010, -352, 279, -198
105511, -33, 873, 279, 4270, 27580, 3360, -349, 274, -204
105512, -52, 911, 264, 3850, 25480, 3360, -355, 280, -211
105513, -70, 963, 255, 560, 16310, 2240, -354, 276, -196
105514, -30, 1061, 274, -1330, 12460, 1750, -351, 279, -192
105515, -1, 1110, 297, -2590, 11690, 1610, -352, 280, -205
105516, 8, 1076, 322, -2940, 13650, 1610, -351, 277, -205
105517, 27, 999, 329, -2450, 17850, 1890, -352, 279, -196
105518, 92, 934, 324, 560, 30450, 3710, -340, 276, -207
105519, 71, 908, 295, 2170, 37310, 4620, -346, 273, -190
105520, 37, 887, 282, 3500, 42140, 5250, -348, 270, -196
105521, 7, 903, 262, 3850, 45570, 5810, -340, 261, -189
105522, 30, 971, 244, 2870, 50680, 7000, -343, 282, -181
105523, 2, 1019, 242, 1540, 51520, 7350, -351, 276, -187
105524, -2, 1016, 251, 140, 50960, 7630, -339, 286, -190
105525, -19, 1025, 239, -1050, 50890, 8050, -345, 279, -186
105526, 1, 976, 261, -2030, 50960, 8680, -336, 285, -168
105527, -75, 698, 298, -2520, 48860, 9940, -349, 276, -180
105528, 3, 813, 312, -1050, 49560, 11200, -346, 297, -171
105529, 60, 998, 292, 1610, 55720, 13090, -337, 274, -168
105530, 71, 1035, 309, 4690, 65310, 14490, -340, 279, -154
105531, -9, 976, 274, 6790, 71470, 15470, -340, 280, -151
105532, -10, 1157, 202, 5320, 67760, 16310, -345, 282, -153
105533, 5, 1220, 189, 2240, 62440, 16310, -336, 289, -156
105534, -52, 1147, 189, -1680, 54880, 15820, -339, 280, -148
105535, -93, 1068, 186, -5460, 46480, 14910, -340, 282, -141
105536, -72, 1025, 186, -9170, 37310, 14910, -340, 286, -141
105537, 28, 937, 237, -8400, 40040, 15750, -343, 289, -138
105538, 22, 889, 253, -6440, 44870, 16310, -346, 286, -141
105539, -10, 871, 244, -4690, 46620, 16730, -342, 298, -142
105540, -64, 803, 239, -3150, 44520, 16940, -349, 297, -144
105541, -5, 891, 218, -1050, 38710, 18410, -348, 291, -127
105542, -10, 1021, 214, -630, 38010, 18830, -342, 297, -129
105543, -30, 1096, 181, -910, 36120, 18200, -348, 300, -132
105544, -47, 1158, 177, -2380, 31360, 17150, -343, 294, -126
105545, -9, 1265, 177, -4900, 25340, 16240, -342, 295, -121
105546, 4, 1141, 183, -10150, 14560, 14630, -348, 300, -118
105547, 20, 997, 171, -11900, 10850, 13930, -348, 294, -120
105548, -35, 850, 186, -12600, 8680, 13510, -360, 307, -117
105549, -9, 753, 227, -11830, 8400, 13720, -351, 298, -120
105550, 35, 758, 217, -5250, 20510, 16100, -352, 292, -106
105551, 95, 918, 227, -1470, 30590, 17220, -352, 309, -108
105552, 39, 931, 224, 490, 36190, 17570, -349, 309, -108
105553, 3, 1036, 192, 490, 34650, 16940, -348, 301, -106
105554, 60, 1227, 180, -1540, 29050, 16240, -364, 301, -103
105555, 5, 1154, 160, -7840, 16730, 14210, -351, 303, -103
105556, -29, 1016, 169, -10360, 10710, 13090, -355, 307, -100
105557, 8, 960, 191, -11410, 7280, 12670, -352, 300, -106
105558, 109, 968, 194, -10500, 10360, 13230, -348, 301, -99
105559, 132, 893, 215, -8260, 19530, 14280, -349, 304, -94
105560, 38, 777, 227, -3150, 31010, 15330, -363, 303, -103
105561, 60, 873, 206, -1680, 31990, 15820, -355, 310, -94
105562, 80, 962, 189, -1050, 32690, 16380, -354, 301, -94
105563, 22, 1016, 195, -1400, 31990, 16450, -360, 304, -85
105564, -34, 1051, 176, -5250, 18480, 14560, -358, 310, -93
105565, 15, 1125, 185, -7070, 12950, 13720, -358, 309, -88
105566, 39, 1097, 202, -8190, 11130, 13300, -370, 310, -97
105567, 46, 1014, 218, -8400, 11200, 13160, -361, 309, -97
105568, 22, 935, 224, -8050, 10990, 13020, -373, 316, -93
105569, 86, 909, 214, -6020, 13510, 13580, -364, 307, -88
105570, 51, 868, 218, -4760, 16170, 13930, -369, 316, -90
105571, 5, 863, 210, -4060, 16730, 13860, -376, 309, -96
105572, 0, 917, 217, -3710, 14210, 13440, -367, 312, -87
105573, 47, 1003, 206, -3920, 10220, 13230, -369, 313, -88
105574, 17, 1062, 211, -4130, 4340, 12670, -375, 319, -85
105575, 0, 1086, 215, -4410, 1750, 11760, -367, 312, -85
105576, -13, 1060, 182, -5040, -2100, 10570, -381, 315, -79
105577, 23, 1046, 187, -6090, -7490, 9380, -364, 318, -93
105578, 65, 1026, 196, -8960, -15960, 7630, -369, 312, -91
105579, 34, 972, 203, -9870, -18830, 6790, -370, 312, -99
105580, 43, 945, 204, -10220, -20720, 6020, -379, 313, -93
105581, 45, 954, 175, -10080, -21980, 5110, -382, 313, -97
105582, 58, 909, 202, -9870, -21980, 4270, -366, 318, -94
105583, 57, 827, 271, -8610, -25200, 2730, -375, 321, -100
105584, 72, 936, 252, -6160, -26320, 2660, -370, 313, -105
105585, 219, 1084, 264, -2800, -20160, 3290, -369, 309, -96
105586, 141, 1162, 223, 560, -9870, 3430, -375, 321, -94
105587, 99, 1078, 222, 1890, -4340, 2730, -375, 319, -108
105588, 71, 949, 175, -1680, -17290, -770, -379, 322, -94
105589, 99, 921, 129, -3990, -26530, -2240, -381, 316, -100
105590, 113, 864, 155, -5390, -30870, -3010, -369, 319, -99
105591, -28, 817, 165, -5600, -31640, -4200, -379, 319, -102
105592, 9, 922, 217, -4060, -31360, -6650, -367, 316, -109
105593, 148, 1014, 272, -2170, -28910, -6790, -378, 322, -115
105594, 171, 1083, 265, -140, -23030, -6230, -373, 318, -108
105595, 222, 1047, 234, 1610, -16240, -5390, -375, 328, -109
105596, 106, 978, 226, 2590, -9520, -5180, -363, 318, -105
105597, 56, 1007, 174, 2310, -7420, -6510, -378, 322, -103
105598, 86, 982, 167, 1470, -8750, -7280, -367, 315, -108
105599, 68, 934, 172, 910, -9240, -7840, -375, 324, -106
105600, 65, 937, 186, 0, -10990, -8190, -373, 321, -112
105601, 46, 981, 196, -630, -12600, -8610, -364, 322, -112
105602, 75, 1039, 194, 70, -10430, -8820, -367, 316, -118
105603, 54, 983, 204, 770, -7140, -8680, -364, 324, -111
105604, 52, 956, 217, 1400, -4060, -8680, -376, 321, -105
105605, 69, 957, 196, 1820, -2450, -8540, -372, 316, -105
105606, 41, 916, 177, 2310, -490, -7840, -376, 315, -118
105607, -19, 916, 182, 1960, -910, -7770, -381, 319, -115
105608, -30, 973, 173, 1400, -3360, -7980, -378, 318, -114
105609, -39, 1038, 168, 700, -6370, -8260, -370, 319, -115
105610, -34, 1006, 183, -70, -9800, -8400, -372, 318, -115
105611, -65, 965, 178, -2030, -16940, -8750, -367, 319, -120
105612, -30, 1017, 176, -3500, -20720, -9100, -367, 309, -121
105613, -39, 976, 218, -4410, -22540, -9380, -373, 321, -123
105614, -14, 991, 223, -4620, -23940, -9240, -364, 321, -120
105615, 18, 1033, 240, -3850, -24920, -9100, -363, 321, -126
105616, 30, 1003, 239, -630, -20720, -8260, -373, 310, -120
105617, 11, 950, 202, 770, -16450, -7980, -369, 315, -129
105618, 3, 872, 186, 1330, -13720, -8050, -364, 319, -133
105619, -23, 863, 154, 770, -14490, -8120, -361, 313, -145
105620, -67, 975, 162, -2310, -26600, -9100, -366, 321, -144
105621, -76, 1003, 193, -3920, -32830, -9940, -369, 324, -127
105622, -31, 1056, 210, -4690, -36890, -10780, -366, 315, -139
105623, 23, 1083, 220, -4690, -36610, -11410, -372, 318, -141
105624, 104, 1181, 230, -4200, -33950, -11410, -370, 322, -130
105625, 146, 1065, 208, -3710, -23590, -10850, -363, 319, -144
105626, 110, 1026, 187, -3850, -18970, -10640, -367, 331, -132
105627, 100, 1047, 164, -4340, -16240, -10500, -363, 327, -145
105628, 41, 975, 176, -5110, -12740, -10850, -366, 333, -145
105629, 18, 827, 191, -5530, -6230, -12110, -363, 322, -150
105630, 104, 811, 206, -3850, -4480, -12040, -361, 318, -145
105631, 108, 836, 218, -2030, -3010, -11550, -369, 324, -148
105632, 82, 817, 264, -350, -1260, -11200, -363, 312, -142
105633, 42, 906, 257, 840, 1120, -11340, -360, 322, -148
105634, 72, 1128, 205, 1680, 7980, -12040, -367, 324, -142
105635, 101, 1074, 210, 1190, 11270, -12110, -357, 324, -150
105636, 81, 1009, 205, -70, 12670, -12110, -358, 316, -144
105637, 86, 993, 209, -1540, 12390, -12180, -363, 322, -144
105638, 42, 1012, 184, -2590, 11970, -12390, -360, 327, -138
105639, 14, 905, 230, -2240, 13720, -13090, -352, 312, -136
105640, 45, 883, 251, -1540, 15260, -13580, -357, 321, -144
105641, 72, 938, 231, -840, 16590, -13790, -354, 315, -141
105642, 88, 967, 244, 0, 17850, -13650, -358, 318, -136
105643, 74, 966, 244, 1330, 22050, -13440, -358, 322, -138
105644, 42, 969, 215, 1540, 25620, -13370, -354, 315, -130
105645, 65, 966, 219, 1680, 29190, -13370, -348, 313, -138
105646, 48, 967, 213, 1960, 31990, -13230, -352, 321, -130
105647, 76, 962, 223, 2240, 34090, -13020, -354, 318, -133
105648, 71, 934, 218, 3990, 39340, -12250, -345, 322, -121
105649, 54, 956, 208, 4970, 43400, -11970, -351, 313, -132
105650, 50, 962, 198, 5740, 47180, -11690, -345, 318, -123
105651, 7, 1011, 186, 6020, 50050, -11480, -348, 309, -120
105652, -71, 1023, 166, 5670, 48440, -10710, -351, 310, -123
105653, -90, 1061, 128, 4200, 49000, -8540, -354, 310, -111
105654, -49, 1035, 142, 3500, 53060, -7140, -345, 306, -108
105655, -28, 992, 148, 3360, 59150, -5460, -343, 306, -106
105656, -3, 861, 174, 3850, 67130, -2730, -340, 306, -99
105657, 30, 765, 168, 7280, 93380, 5040, -340, 304, -96
105658, 233, 690, 160, 9660, 112000, 9170, -342, 310, -84
105659, 372, 654, 161, 12250, 134890, 13720, -355, 312, -87
105660, 485, 800, 174, 15330, 163030, 18410, -340, 304, -72
105661, 454, 1113, 110, 18340, 191660, 22330, -340, 313, -63
105662, 237, 1372, 23, 21910, 244720, 25900, -348, 315, -48
105663, 207, 1320, 38, 21210, 256690, 25410, -346, 297, -39
105664, 206, 1288, -2, 19110, 259280, 24850, -355, 307, -22
105665, 333, 1176, 12, 17010, 261030, 24430, -345, 321, -7
105666, 167, 1008, -54, 15190, 259280, 23940, -360, 318, 13
105667, 114, 776, 2, 12530, 245700, 21280, -364, 315, 21
105668, 205, 862, 43, 12180, 241080, 20720, -363, 316, 30
105669, 196, 988, 50, 12460, 237510, 20370, -361, 310, 40
105670, 127, 1054, 59, 12950, 231700, 19810, -378, 309, 60
105671, 0, 1088, 25, 12040, 211050, 17500, -372, 309, 61
105672, -363, 1237, -83, 9870, 188020, 15120, -375, 318, 82
105673, -372, 1216, -78, 6650, 161420, 12880, -375, 307, 72
105674, -395, 1114, -108, 3360, 137480, 10780, -384, 315, 94
105675, -267, 973, -23, 350, 119070, 9870, -384, 312, 100
105676, -157, 946, 37, -3570, 95340, 10500, -399, 316, 105
105677, -151, 972, 20, -4690, 84350, 10920, -391, 324, 94
105678, -111, 945, 33, -4900, 75600, 11060, -391, 324, 105
105679, -78, 940, 18, -4200, 70700, 10780, -397, 316, 103
105680, -55, 962, 23, -2870, 70000, 9870, -396, 319, 108
105681, 20, 1024, 36, 140, 73360, 7490, -411, 307, 118
105682, 46, 1035, 47, 1190, 73710, 6580, -399, 315, 117
105683, 74, 1027, 74, 2100, 74200, 5600, -402, 319, 120
105684, 118, 1027, 61, 2590, 74760, 4830, -412, 315, 132
105685, 143, 1003, 29, 4410, 81130, 3850, -411, 316, 129
105686, 38, 970, 9, 5460, 84350, 3150, -414, 313, 114
105687, -12, 962, -6, 6370, 85050, 2310, -406, 316, 135
105688, 29, 957, 4, 7420, 86170, 1540, -418, 325, 135
105689, 70, 966, 4, 9030, 90020, 1400, -411, 322, 135
105690, 89, 935, 5, 12320, 104440, 2030, -421, 316, 150
105691, 85, 934, 3, 14070, 113470, 2380, -426, 319, 148
105692, 39, 999, -13, 15610, 119210, 2240, -417, 315, 154
105693, 10, 1058, -30, 16660, 121100, 1470, -432, 313, 156
105694, -50, 1076, -52, 17290, 119490, 70, -432, 322, 171
105695, -109, 1046, -66, 17570, 109270, -3010, -435, 321, 166
105696, -65, 1033, -49, 17500, 102970, -3640, -430, 319, 178
105697, -64, 1000, -44, 17710, 99050, -3920, -439, 318, 178
105698, -109, 970, -57, 17780, 94080, -3850, -435, 313, 183
105699, -171, 954, -85, 17780, 79940, -4480, -441, 312, 180
105700, -192, 972, -86, 17780, 72170, -4900, -442, 309, 196
105701, -213, 994, -82, 17570, 62300, -5670, -453, 318, 196
105702, -233, 1011, -89, 17220, 50470, -6720, -445, 310, 201
105703, -198, 1021, -74, 16800, 39130, -7700, -444, 319, 187
105704, -95, 1024, -49, 16380, 21770, -8890, -450, 306, 196
105705, -55, 995, -35, 16310, 15890, -9100, -451, 315, 198
105706, -19, 974, -16, 16170, 11270, -9170, -447, 315, 199
105707, 3, 980, -41, 15890, 8330, -9170, -448, 315, 207
105708, 52, 981, -24, 15750, 7070, -9310, -459, 312, 208
105709, 52, 1014, -15, 15400, 8540, -9660, -451, 313, 204
105710, 62, 1040, -33, 15120, 9870, -9660, -448, 304, 205
105711, 68, 1040, -20, 15190, 11760, -9730, -451, 304, 202
105712, 59, 1039, -20, 14770, 13370, -9310, -448, 301, 199
105713, 73, 1020, -24, 13650, 14560, -8260, -448, 313, 214
105714, 15, 1001, -29, 12670, 14070, -7700, -441, 300, 213
105715, -17, 1000, -48, 11200, 10990, -7140, -451, 307, 213
105716, -64, 1019, -84, 9730, 6090, -7000, -438, 307, 220
105717, -95, 1033, -68, 7840, -210, -6930, -450, 304, 214
105718, -161, 1075, -106, 4550, -14700, -7770, -450, 304, 208
105719, -156, 1072, -113, 3360, -18690, -7910, -447, 309, 219
105720, -73, 1043, -84, 2660, -21560, -7910, -459, 297, 207
105721, -127, 1012, -96, 2100, -22050, -7700, -445, 304, 207
105722, -42, 962, -41, 1400, -23520, -7140, -436, 303, 211
105723, -35, 941, -37, 490, -25060, -6020, -441, 307, 211
105724, -95, 986, -109, 420, -25480, -5880, -435, 304, 204
105725, -118, 975, -72, 280, -25060, -5810, -441, 298, 211
105726, -155, 985, -126, 350, -26040, -5950, -445, 294, 213
105727, -204, 966, -114, -140, -27650, -5810, -429, 294, 205
105728, -259, 986, -142, -210, -30310, -6090, -438, 303, 202
105729, -237, 1006, -152, -350, -32970, -6020, -433, 300, 201
105730, -325, 1018, -164, 420, -31570, -6510, -427, 306, 214
105731, -263, 1006, -154, 1050, -31080, -6860, -429, 300, 205
105732, -374, 971, -134, 3150, -28840, -8050, -438, 303, 202
105733, -270, 948, -142, 4410, -28070, -8610, -427, 300, 195
105734, -256, 906, -111, 5320, -23730, -8120, -429, 295, 198
105735, -255, 873, -108, 6300, -22190, -8120, -426, 291, 193
105736, -283, 876, -122, 7070, -19180, -7840, -435, 297, 208
105737, -416, 926, -178, 8890, -21000, -8960, -426, 297, 196
105738, -433, 899, -109, 9940, -20370, -9940, -423, 297, 204
105739, -381, 969, -207, 11270, -21210, -10430, -426, 291, 204
105740, -257, 918, -92, 13160, -18830, -10990, -423, 303, 199
105741, -340, 838, -43, 15960, -14490, -11270, -424, 297, 193
105742, -419, 885, -178, 16940, -14840, -11200, -415, 292, 199
105743, -351, 874, -102, 18480, -17430, -11760, -421, 292, 201
105744, -404, 900, -156, 19180, -19040, -11760, -420, 295, 202
105745, -414, 911, -175, 20580, -21700, -12460, -421, 292, 196
105746, -518, 887, -154, 22120, -29120, -13650, -409, 280, 204
105747, -478, 930, -176, 22470, -34230, -14140, -412, 277, 195
105748, -413, 966, -176, 23100, -39480, -14490, -415, 288, 204
105749, -377, 972, -145, 23100, -44100, -14420, -408, 286, 198
105750, -320, 960, -100, 22750, -50610, -13300, -415, 285, 202
105751, -215, 986, -84, 20650, -55300, -12600, -405, 282, 204
105752, -222, 993, -88, 18970, -60690, -11970, -415, 279, 202
105753, -249, 1016, -111, 17080, -66360, -11970, -400, 285, 195
105754, -213, 1135, -125, 14840, -72380, -12110, -402, 277, 192
105755, -241, 1298, -85, 9940, -75110, -13090, -405, 273, 178
105756, -301, 1194, -61, 7280, -74200, -13510, -394, 283, 195
105757, -295, 1113, -43, 4690, -74760, -13370, -385, 276, 180
105758, -329, 1118, -40, 2660, -77280, -13160, -388, 274, 187
105759, -323, 1087, -55, 1050, -80710, -12600, -381, 268, 172
105760, -358, 884, -41, -350, -90160, -11970, -384, 279, 177
105761, -334, 820, -22, -350, -96600, -11900, -372, 277, 166
105762, -284, 791, -19, -210, -104790, -11620, -379, 274, 165
105763, -183, 745, 7, 140, -110950, -11270, -369, 265, 160
105764, -144, 722, 13, 1190, -113050, -9170, -373, 271, 156
105765, -155, 846, -4, 1540, -113260, -8400, -366, 277, 142
105766, -194, 949, -19, 1680, -112980, -8050, -357, 277, 144
105767, -227, 1043, -48, 1890, -113680, -8260, -361, 274, 130
105768, -201, 1098, -52, 1890, -113330, -8540, -354, 264, 130
105769, -109, 1029, -31, 1890, -105840, -9100, -345, 270, 121
105770, -79, 953, -13, 2100, -98280, -8750, -348, 264, 120
105771, -42, 912, 0, 2240, -90580, -8120, -339, 262, 124
105772, -38, 899, 14, 2870, -81270, -7280, -348, 268, 109
105773, -72, 903, 13, 3430, -72870, -6650, -337, 262, 106
105774, -175, 924, 2, 4690, -60480, -5740, -333, 267, 94
105775, -174, 959, -5, 5460, -55720, -5460, -340, 268, 103
105776, -180, 1042, -14, 6300, -50190, -5180, -331, 270, 96
105777, -199, 1082, -15, 6790, -44730, -4900, -331, 262, 94
105778, -216, 1090, -15, 6160, -36680, -4200, -330, 259, 90
105779, -206, 1027, -2, 5180, -33810, -3570, -334, 267, 85
105780, -184, 973, 5, 4270, -30870, -2800, -339, 264, 94
105781, -176, 1010, 5, 3710, -27370, -1960, -334, 258, 90
105782, -222, 1100, 26, 3220, -24150, -1680, -330, 271, 85
105783, -335, 1065, 38, 1610, -24640, -2030, -337, 267, 78
105784, -289, 1017, 52, 910, -27440, -2100, -337, 267, 84
105785, -202, 987, 63, 560, -28420, -1820, -330, 255, 82
105786, -159, 969, 63, 700, -26950, -1330, -325, 264, 81
105787, -251, 938, 51, 980, -25200, -1190, -319, 258, 69
105788, -312, 895, 18, 1470, -27510, -1610, -330, 265, 79
105789, -257, 899, 24, 2100, -27860, -1610, -328, 262, 73
105790, -229, 864, 30, 3080, -26810, -1190, -333, 268, 75
105791, -241, 819, 39, 3920, -26180, -770, -333, 267, 69
105792, -255, 832, 36, 4970, -29260, -280, -322, 267, 75
105793, -257, 998, 20, 5180, -31360, -280, -328, 262, 66
105794, -268, 1023, 16, 5320, -32900, -490, -325, 264, 76
105795, -282, 1017, 12, 5180, -35070, -1050, -325, 267, 54
105796, -264, 1024, 19, 4690, -37660, -1540, -333, 270, 63
105797, -208, 1035, 29, 3500, -41860, -2100, -327, 267, 64
105798, -234, 999, 21, 2800, -44660, -2380, -328, 259, 60
105799, -277, 943, 18, 2100, -49000, -2800, -312, 267, 52
105800, -290, 928, 25, 1540, -54040, -3290, -324, 268, 60
105801, -272, 938, 25, 1470, -58380, -3570, -325, 265, 64
105802, -253, 939, 34, 2310, -61810, -3640, -322, 264, 48
105803, -260, 935, 39, 2730, -62790, -3570, -322, 268, 43
105804, -266, 965, 38, 2940, -64750, -3430, -319, 265, 37
105805, -232, 1000, 37, 2940, -66990, -3360, -318, 261, 40
105806, -225, 1001, 56, 2520, -70630, -3290, -315, 270, 30
105807, -251, 1024, 58, 1960, -73710, -3430, -312, 265, 31
105808, -186, 1063, 66, 1610, -74900, -3360, -309, 255, 13
105809, -165, 1040, 69, 1470, -72380, -3150, -315, 270, 9
105810, -177, 978, 80, 1400, -68810, -2940, -301, 258, 15
105811, -174, 949, 84, 770, -64050, -2450, -315, 271, -3
105812, -162, 973, 89, 560, -61670, -1890, -321, 268, 6
105813, -175, 981, 91, 770, -59570, -1470, -312, 261, 0
105814, -221, 969, 98, 770, -58590, -1260, -313, 267, -9
105815, -251, 977, 100, 840, -59290, -1330, -304, 264, -21
105816, -212, 986, 96, 1330, -58730, -1190, -303, 265, -16
105817, -220, 950, 95, 1470, -58520, -980, -307, 276, -15
105818, -253, 939, 96, 1190, -60410, -980, -306, 259, -15
105819, -243, 960, 93, 420, -64190, -1120, -309, 270, -25
105820, -231, 1015, 95, -1190, -71260, -1400, -307, 268, -30
105821, -257, 997, 105, -1960, -74690, -1610, -307, 267, -33
105822, -275, 978, 115, -2520, -78890, -1820, -304, 268, -33
105823, -244, 968, 117, -2730, -83090, -2170, -306, 259, -54
105824, -231, 953, 125, -2590, -85120, -2240, -297, 264, -55
105825, -216, 864, 130, -2450, -94150, -2870, -300, 268, -60
105826, -149, 821, 128, -2520, -98560, -3360, -304, 259, -64
105827, -94, 842, 115, -2100, -100800, -3780, -300, 267, -66
105828, -121, 996, 126, -1680, -101220, -4340, -303, 273, -73
105829, -143, 1124, 130, -2030, -103040, -5180, -306, 267, -85
105830, -193, 1166, 175, -5040, -112070, -7700, -294, 261, -100
105831, -262, 1143, 173, -6650, -119210, -9450, -298, 252, -111
105832, -277, 1123, 163, -8260, -127820, -10780, -297, 261, -118
105833, -273, 1009, 170, -9450, -136220, -12040, -291, 258, -126
105834, -55, 803, 185, -10640, -145670, -12740, -312, 261, -132
105835, 113, 833, 219, -9520, -134750, -11970, -298, 259, -141
105836, 125, 927, 243, -8050, -122360, -10780, -313, 250, -150
105837, 62, 1004, 280, -6790, -113330, -10150, -301, 264, -159
105838, 3, 1021, 287, -6510, -107730, -9450, -297, 255, -163
105839, -13, 1029, 278, -6230, -92120, -8960, -297, 253, -180
105840, 2, 997, 273, -5740, -79870, -8190, -301, 253, -184
105841, -15, 924, 279, -5110, -67830, -7000, -300, 253, -181
105842, -65, 844, 289, -4900, -59290, -5880, -301, 262, -192
105843, -78, 812, 315, -4900, -55090, -4760, -303, 247, -186
105844, -111, 987, 366, -3150, -46830, -3290, -306, 261, -201
105845, -158, 1008, 381, -1610, -39760, -2660, -301, 253, -193
105846, -180, 965, 399, -280, -34020, -1890, -294, 252, -204
105847, -197, 930, 390, 280, -30450, -1260, -307, 246, -196
105848, -149, 967, 360, -210, -26460, -420, -294, 255, -199
105849, -149, 945, 351, -700, -24710, -70, -295, 261, -201
105850, -219, 876, 357, -1190, -24570, 70, -309, 261, -201
105851, -241, 841, 380, -1820, -26320, 70, -304, 256, -214
105852, -247, 885, 394, -2100, -28840, -70, -297, 246, -204
105853, -183, 951, 417, -1820, -28280, 350, -304, 252, -213
105854, -164, 924, 426, -1330, -26390, 700, -298, 253, -205
105855, -173, 909, 430, -910, -25060, 1120, -303, 249, -210
105856, -172, 903, 423, -630, -24010, 1470, -313, 261, -211
105857, -183, 902, 409, -560, -22750, 1820, -304, 247, -222
105858, -199, 906, 404, -490, -18900, 2590, -303, 261, -217
105859, -217, 923, 408, -770, -17780, 2940, -304, 255, -232
105860, -227, 946, 411, -1260, -18200, 3290, -301, 258, -219
105861, -230, 960, 413, -1820, -19670, 3640, -307, 256, -228
105862, -223, 932, 421, -2240, -21840, 4130, -315, 261, -220
105863, -215, 902, 424, -2170, -22260, 4270, -304, 253, -240
105864, -209, 881, 422, -1820, -22260, 4480, -304, 262, -223
105865, -188, 874, 420, -1400, -21770, 4690, -309, 258, -228
105866, -158, 882, 419, -840, -20510, 5040, -310, 255, -226
105867, -146, 901, 423, 0, -16100, 5950, -307, 261, -232
105868, -157, 911, 419, 210, -13930, 6440, -309, 256, -226
105869, -171, 924, 414, 350, -12180, 6860, -321, 255, -231
105870, -187, 928, 409, 350, -10920, 7280, -310, 253, -219
105871, -195, 926, 405, 350, -10080, 7980, -307, 256, -238
105872, -201, 910, 402, 210, -10150, 8260, -315, 264, -222
105873, -196, 908, 399, 350, -10220, 8470, -322, 247, -241
105874, -184, 912, 400, 490, -10150, 8680, -306, 270, -228
105875, -174, 915, 400, 700, -9660, 8960, -312, 255, -240
105876, -173, 920, 404, 700, -10080, 9380, -307, 267, -228
105877, -181, 921, 403, 490, -10990, 9450, -316, 261, -237
105878, -180, 920, 409, 420, -11620, 9450, -318, 259, -237
105879, -168, 913, 414, 350, -11690, 9380, -324, 249, -238
105880, -151, 910, 416, 350, -11270, 9380, -325, 256, -238
105881, -131, 916, 417, 350, -11130, 9380, -322, 253, -231
105882, -146, 916, 422, 210, -11830, 9310, -316, 267, -232
105883, -166, 910, 425, 140, -13090, 9030, -316, 259, -234
105884, -171, 903, 422, 70, -14490, 8750, -321, 268, -232
105885, -169, 898, 420, 210, -16030, 8400, -324, 267, -238
105886, -129, 904, 427, 140, -15610, 8330, -321, 259, -231
105887, -126, 903, 423, -70, -15190, 8260, -318, 256, -240
105888, -121, 906, 431, -420, -15050, 8120, -325, 256, -246
105889, -125, 904, 452, -630, -14770, 7910, -321, 270, -243
105890, -76, 977, 446, 70, -12110, 7700, -325, 270, -229
105891, -69, 925, 448, 700, -9240, 7840, -310, 261, -240
105892, -86, 866, 439, 1400, -7630, 7770, -324, 276, -241
105893, -84, 864, 443, 1960, -7350, 7420, -316, 273, -243
105894, -85, 918, 435, 2310, -7560, 7070, -330, 274, -241
105895, -139, 925, 421, 2310, -5880, 6790, -327, 274, -234
105896, -177, 894, 430, 1610, -7840, 6300, -327, 265, -235
105897, -168, 930, 428, 490, -12250, 5600, -327, 274, -244
105898, -132, 957, 418, -420, -15540, 4900, -325, 280, -249
105899, -99, 925, 433, -840, -14420, 4550, -325, 282, -249
105900, -63, 874, 447, -560, -13510, 4550, -322, 268, -241
105901, -73, 908, 444, -140, -11620, 4620, -324, 277, -240
105902, -82, 933, 454, 350, -9380, 4970, -325, 271, -237
105903, -103, 935, 452, 770, -6300, 5320, -322, 273, -235
105904, -151, 872, 442, 1120, -5110, 5250, -336, 279, -243
105905, -131, 903, 440, 1260, -5810, 5040, -328, 285, -256
105906, -103, 973, 414, 1260, -6090, 5180, -328, 280, -240
105907, -121, 1066, 408, 840, -7070, 5390, -333, 286, -241
105908, -150, 996, 436, -280, -9310, 5110, -333, 274, -243
105909, -146, 955, 399, -2450, -14910, 4620, -333, 277, -246
105910, -116, 948, 385, -2800, -13720, 4970, -322, 276, -247
105911, -87, 887, 407, -3010, -10290, 5740, -331, 271, -240
105912, -107, 823, 429, -3220, -8330, 6020, -328, 277, -243
105913, -127, 846, 451, -3150, -7490, 5950, -322, 279, -246
105914, -79, 918, 418, -2800, -4340, 6370, -333, 279, -255
105915, -85, 800, 470, -2590, -2870, 6580, -333, 276, -252
105916, -120, 665, 518, -2380, -3500, 6020, -325, 283, -244
105917, -50, 775, 496, -1330, -5110, 5530, -331, 280, -241
105918, 62, 1002, 478, 3220, 7420, 6230, -337, 273, -241
105919, -1, 940, 481, 4410, 13090, 6510, -340, 283, -243
105920, -95, 871, 461, 4060, 10850, 5670, -333, 271, -247
105921, -115, 956, 385, 2870, 3150, 4480, -333, 285, -246
105922, -113, 1104, 359, 1260, -3080, 3710, -330, 282, -243
105923, -170, 900, 407, -2730, -7630, 2380, -331, 282, -244
105924, -166, 752, 438, -4270, -12600, 980, -331, 280, -241
105925, -106, 685, 454, -4340, -16660, -140, -334, 279, -238
105926, 70, 789, 457, -1610, -11900, 280, -336, 283, -240
105927, 207, 814, 466, 6720, 17290, 3290, -330, 277, -244
105928, 28, 723, 462, 9030, 23520, 3990, -337, 283, -243
105929, -57, 831, 392, 9870, 22820, 3640, -325, 274, -235
105930, -88, 1125, 355, 9450, 21700, 3570, -336, 276, -234
105931, -120, 1212, 348, 7910, 23380, 3850, -337, 277, -237
105932, -198, 979, 347, 1960, 13930, 3290, -333, 282, -238
105933, -135, 1054, 339, -1050, 3430, 2730, -325, 273, -235
105934, -13, 1070, 328, -2310, 1190, 2870, -328, 268, -234
105935, 15, 880, 390, -1400, 8540, 3780, -334, 277, -232
105936, 12, 714, 414, 1470, 18760, 4550, -334, 276, -235
105937, 115, 835, 367, 9030, 35350, 6090, -327, 282, -244
105938, 158, 976, 322, 12110, 46480, 7910, -331, 280, -222
105939, 52, 987, 281, 13090, 52990, 9310, -333, 277, -235
105940, -167, 983, 275, 11200, 49350, 9380, -322, 276, -211
105941, -308, 1262, 243, 1820, 14630, 7070, -324, 277, -220
105942, -286, 1137, 250, -1960, 3360, 6580, -330, 280, -211
105943, -222, 952, 304, -3990, -2520, 6650, -333, 274, -228
105944, -149, 909, 327, -4130, -4480, 6650, -336, 273, -216
105945, -56, 944, 331, -3010, -3150, 7350, -340, 283, -234
105946, -26, 974, 316, 1400, 9310, 9520, -330, 277, -219
105947, -61, 929, 298, 3010, 13720, 10500, -333, 286, -222
105948, -185, 846, 310, 3570, 12320, 10640, -331, 285, -217
105949, -200, 850, 294, 3500, 7420, 10570, -336, 285, -214
105950, -152, 925, 241, 3500, 2520, 10920, -334, 279, -234
105951, -233, 931, 242, 2730, -5110, 11690, -331, 285, -222
105952, -286, 1017, 239, 1400, -14210, 11480, -336, 286, -211
105953, -329, 1069, 298, -210, -25830, 10710, -331, 283, -220
105954, -276, 1176, 290, -1610, -34930, 10360, -351, 283, -223
105955, -240, 1029, 267, -2450, -42210, 10570, -342, 286, -232
105956, -289, 860, 262, -3500, -46830, 10360, -340, 280, -229
105957, -275, 767, 285, -4270, -54250, 10080, -339, 288, -240
105958, -227, 901, 257, -3640, -59290, 9870, -340, 291, -241
105959, -138, 1049, 275, -2170, -57120, 10640, -349, 288, -232
105960, -173, 961, 264, -490, -51590, 11900, -346, 295, -231
105961, -268, 950, 285, -1960, -57400, 10780, -354, 295, -249
105962, -259, 915, 292, -3710, -64120, 9800, -351, 294, -241
105963, -215, 941, 237, -4340, -67550, 9100, -346, 288, -253
105964, -113, 862, 267, -4130, -66780, 9310, -352, 294, -252
105965, -45, 705, 330, -2310, -56140, 9520, -345, 297, -265
105966, -54, 789, 337, -770, -52360, 9240, -355, 297, -261
105967, 26, 895, 349, 1120, -46550, 9240, -355, 298, -270
105968, 72, 937, 352, 3220, -38990, 9380, -364, 300, -267
105969, 19, 970, 355, 4830, -28000, 9380, -363, 297, -273
105970, -25, 1020, 318, 3850, -29540, 8960, -369, 309, -267
105971, -10, 1139, 314, 2310, -34020, 8400, -360, 307, -276
105972, -72, 1189, 313, 700, -36330, 7770, -360, 312, -271
105973, -62, 1149, 330, -630, -38710, 6790, -363, 304, -279
105974, -61, 1003, 322, -2310, -43050, 4760, -354, 303, -273
105975, -72, 918, 270, -2940, -45500, 3920, -370, 301, -279
105976, -110, 753, 289, -3500, -47670, 3360, -366, 312, -279
105977, -101, 714, 359, -3500, -52570, 1960, -373, 303, -279
105978, -55, 922, 334, -2590, -55650, 0, -367, 312, -276
105979, 72, 1005, 352, 910, -44870, 70, -364, 301, -282
105980, 10, 885, 346, 1680, -39200, -280, -372, 316, -289
105981, -9, 934, 332, 910, -39830, -1050, -370, 304, -285
105982, -27, 937, 309, -420, -41860, -1890, -372, 310, -283
105983, -18, 960, 324, -2450, -35350, -1540, -382, 303, -286
105984, -75, 817, 326, -3360, -29960, -1120, -370, 301, -286
105985, -72, 708, 356, -3920, -29820, -1400, -382, 294, -301
105986, -8, 801, 402, -3500, -32270, -2030, -378, 301, -286
105987, 159, 1002, 395, -1260, -29540, -2100, -378, 303, -295
105988, 231, 1060, 392, 4830, -1540, -700, -376, 303, -285
105989, 115, 948, 347, 5530, 4900, -1050, -373, 291, -294
105990, 61, 965, 335, 4200, -1190, -2310, -375, 289, -294
105991, 19, 998, 295, 1680, -9170, -3570, -372, 297, -289
105992, 40, 987, 269, -1190, -9450, -4620, -373, 298, -297
105993, -40, 834, 285, -2100, -9870, -5250, -372, 304, -304
105994, -48, 854, 335, -3220, -15050, -6230, -381, 301, -297
105995, -41, 990, 294, -4900, -21140, -6930, -370, 291, -301
105996, -106, 1023, 235, -7210, -24430, -7350, -382, 301, -301
105997, -92, 810, 497, -10010, -37660, -10850, -372, 297, -303
105998, 112, 1073, 475, -8190, -39550, -12250, -379, 294, -321
105999, 240, 1209, 438, -3990, -27930, -11620, -373, 291, -316
106000, 276, 958, 438, 770, -7070, -10290, -376, 291, -309
106001, 40, 651, 418, 3640, 1750, -10570, -370, 297, -313
106002, -147, 850, 281, 1610, -21840, -13720, -387, 283, -312
106003, -127, 1106, 300, -770, -29120, -14070, -373, 291, -318
106004, -168, 928, 406, -3080, -29050, -14560, -372, 291, -325
106005, -157, 869, 481, -4340, -33810, -16310, -369, 288, -322
106006, -94, 980, 491, -3640, -38780, -17710, -376, 292, -328
106007, 142, 1062, 424, -1120, -26460, -16800, -373, 292, -321
106008, 124, 782, 450, 630, -14840, -16660, -375, 282, -322
106009, 19, 613, 432, 1260, -10500, -16940, -373, 282, -327
106010, -45, 726, 432, 1050, -14420, -18340, -364, 288, -328
106011, 87, 869, 407, 2240, -2170, -17500, -363, 271, -331
106012, 131, 746, 414, 3500, 9940, -16310, -372, 285, -325
106013, 30, 716, 450, 4130, 14070, -15820, -373, 283, -334
106014, 99, 855, 472, 4480, 14770, -15190, -370, 282, -324
106015, 133, 1047, 472, 6020, 19600, -14420, -363, 283, -351
106016, 184, 1119, 435, 10570, 46970, -9870, -366, 279, -348
106017, 22, 1046, 401, 10920, 53340, -7980, -364, 283, -333
106018, -72, 1057, 393, 9450, 46760, -7350, -355, 289, -333
106019, -90, 1200, 329, 6930, 37100, -6440, -363, 276, -327
106020, -75, 1255, 265, 350, 29540, -3780, -363, 283, -327
106021, -390, 718, 248, -3570, 19810, -4690, -358, 286, -330
106022, -196, 641, 431, -6580, -1610, -5950, -354, 286, -321
106023, -142, 1003, 405, -6090, -12040, -6790, -358, 291, -327
106024, 105, 1230, 391, -1960, -5600, -4970, -351, 283, -319
106025, -178, 656, 474, 6090, 14630, -3150, -355, 283, -322
106026, -384, 537, 399, 6650, -3570, -5250, -345, 265, -327
106027, -135, 740, 378, 6720, -25060, -6510, -348, 279, -318
106028, -97, 1010, 206, 7630, -24920, -5880, -361, 285, -322
106029, 10, 772, 234, 8260, -11900, -4130, -348, 276, -322
106030, -227, 759, 366, 2590, -27860, -7000, -357, 280, -322
106031, -52, 1306, 373, -910, -41860, -8400, -357, 276, -324
106032, 165, 1801, 395, -910, -33600, -7700, -351, 276, -322
106033, 218, 1663, 367, 560, -9310, -5880, -342, 276, -315
106034, -5, 1040, 461, -1120, 630, -6930, -352, 268, -319
106035, -156, 786, 373, -3010, -15890, -8540, -348, 277, -324
106036, 116, 996, 237, -1820, -15960, -7420, -349, 268, -324
106037, 58, 818, 263, 1120, 3080, -4550, -352, 271, -325
106038, -32, 395, 374, 3850, 19810, -3010, -349, 271, -318
106039, -74, 732, 410, 5320, 8400, -3080, -336, 264, -321
106040, 133, 1229, 367, 7840, 7490, -1960, -348, 270, -322
106041, 242, 1176, 386, 11830, 26250, 420, -346, 276, -313
106042, 223, 884, 348, 14980, 47670, 2730, -342, 271, -303
106043, 35, 647, 368, 14980, 53620, 3570, -343, 273, -316
106044, 29, 1296, 279, 11340, 26250, 2450, -340, 258, -309
106045, 78, 1463, 153, 10640, 29680, 3640, -331, 273, -295
106046, -60, 886, 231, 8610, 36890, 5180, -340, 261, -294
106047, -285, 528, 294, 5040, 27440, 3570, -346, 264, -303
106048, -126, 1684, 194, -3570, -21560, -490, -334, 265, -300
106049, 16, 1791, 316, -4760, -23100, -490, -343, 271, -297
106050, -136, 1321, 368, -5390, -18970, -1400, -337, 271, -298
106051, -210, 1243, 351, -7280, -24640, -3710, -333, 267, -294
106052, -139, 1285, 238, -10150, -38780, -6720, -336, 259, -301
106053, -121, 809, 203, -15190, -48650, -10010, -343, 265, -307
106054, -128, 268, 230, -15820, -47250, -11830, -351, 271, -306
106055, -127, 76, 312, -14770, -45920, -14000, -345, 265, -304
106056, 48, 218, 318, -11900, -38430, -15540, -351, 261, -309
106057, 220, 568, 310, -5880, -22820, -15610, -339, 273, -306
106058, 351, 790, 500, 5670, 21350, -13370, -348, 280, -295
106059, 262, 991, 472, 9520, 34090, -13440, -343, 273, -306
106060, 448, 1255, 490, 12390, 42140, -12950, -342, 280, -292
106061, 348, 1432, 296, 14000, 56490, -11830, -345, 273, -297
106062, -140, 859, 233, 7490, 62160, -10990, -343, 274, -288
106063, -350, 685, 258, -910, 33530, -13650, -348, 279, -285
106064, -202, 498, 330, -7140, 420, -16380, -346, 270, -276
106065, -29, -39, 377, -5880, -7280, -17920, -339, 270, -277
106066, 286, -489, 238, 4200, 15050, -16240, -340, 273, -273
106067, 370, -879, 487, 33040, 95970, -12320, -331, 274, -280
106068, 169, -866, 402, 46550, 125650, -11200, -340, 273, -264
106069, 308, -623, 294, 60340, 142520, -9800, -340, 270, -250
106070, 370, -484, 143, 73360, 174720, -6860, -316, 267, -229
106071, 362, -502, 107, 85540, 207690, -3710, -328, 271, -210
106072, 371, 3997, -176, 92960, 237090, 7630, -327, 277, -196
106073, 48, 3997, 359, 62930, 168700, 6860, -325, 274, -178
106074, -495, 3997, -21, 12390, 22260, -700, -316, 282, -175
106075, -452, 3997, -88, -37380, -121870, -3990, -330, 274, -198
106076, -664, 1252, -140, -75600, -210070, 70, -330, 276, -222
106077, 312, 335, -178, -62020, -184170, 9100, -340, 277, -240
106078, 556, -576, 245, -47040, -92470, 21140, -345, 270, -249
106079, -382, -1169, 209, -38920, -51520, 25270, -339, 277, -246
106080, -987, -1386, 275, -38360, -63350, 27090, -334, 276, -261
106081, -208, -386, 171, -31220, -130690, 32130, -354, 280, -265
106082, 372, -218, 78, -18270, -98000, 39200, -354, 285, -268
106083, 516, -532, 186, -5950, -31220, 46130, -345, 283, -267
106084, -50, -1060, 169, 280, 4480, 46200, -354, 289, -276
106085, -542, -1039, 899, 7350, -4970, 40600, -364, 297, -262
106086, -1359, 3997, 568, 40670, 62230, 24710, -375, 303, -264
106087, -815, 3997, 423, 54600, 151200, 21490, -366, 289, -264
106088, -649, 2297, 624, 53060, 165060, 18060, -360, 304, -253
106089, -142, 868, 232, 32130, 83160, 10990, -358, 306, -247
106090, 216, 1282, -61, 2940, -75740, 9310, -369, 306, -250
106091, 1098, 1471, -101, 11340, -39200, 17220, -360, 307, -250
106092, 154, 265, 145, 20160, 34090, 27720, -364, 318, -246
106093, -93, -950, 296, 23660, 65940, 27650, -370, 315, -246
106094, -1360, -965, 141, 17220, 22750, 21420, -363, 313, -238
106095, -183, 461, -57, 17430, -35000, 21700, -369, 318, -241
106096, 723, 1061, 15, 27160, 11620, 28770, -367, 321, -237
106097, 404, 2226, -27, 31220, 67130, 33670, -372, 315, -232
106098, -257, 3264, 36, 17990, 70980, 32550, -372, 319, -219
106099, -799, 3829, -255, -10850, -95620, 18340, -375, 324, -235
106100, -353, 3001, 5, -65590, -154560, 16730, -378, 315, -237
106101, -125, 1389, 89, -73990, -169190, 18620, -381, 313, -244
106102, -41, 26, -65, -68530, -151200, 22470, -384, 316, -267
106103, 167, -542, 110, -59080, -107660, 29820, -391, 315, -277
106104, -388, -896, 231, -46550, -71820, 33740, -394, 313, -276
106105, -487, -741, 141, -43680, -83650, 32410, -400, 309, -295
106106, -339, -593, 143, -40180, -95550, 31710, -400, 304, -286
106107, -38, -420, 126, -34090, -89320, 31010, -400, 313, -303
106108, 143, -399, 157, -27650, -69860, 30660, -403, 313, -310
106109, -100, 842, 96, -20510, -29330, 23170, -412, 307, -307
106110, -495, 2112, 735, -21070, -26110, 13790, -412, 313, -304
106111, 197, 3391, 1685, -14210, -45360, 770, -411, 310, -307
106112, 158, 3966, 1263, 4830, -32830, -8750, -409, 310, -316
106113, 2355, 3440, 671, 54390, 159180, 10010, -412, 307, -321
106114, 1374, -976, 184, 67340, 238070, 15260, -411, 313, -298
106115, -1259, -1679, 303, 55930, 237300, 3430, -406, 322, -291
106116, -562, -680, -65, 47950, 139510, -2660, -400, 324, -274
106117, -721, 386, -175, 48300, 88900, -5950, -403, 310, -270
106118, 1287, 865, 220, 63980, 118370, 7000, -403, 310, -271
106119, 1120, 1023, -21, 60270, 148540, 10990, -397, 322, -261
106120, 179, 1539, 77, 41510, 106260, 5950, -388, 321, -247
106121, 158, 2897, -10, 17290, 24430, 910, -396, 322, -249
106122, 766, 3385, 36, -2170, -35490, 2730, -396, 313, -244
106123, 322, 1171, 59, -17990, -22470, 4970, -400, 327, -252
106124, -444, 340, 112, -23800, -11270, 1610, -384, 328, -244
106125, -578, 148, 110, -29610, -31290, -1470, -388, 339, -253
106126, -466, 305, -41, -29540, -46970, -2310, -393, 322, -253
106127, -208, 451, -23, -22400, -37380, 1120, -402, 321, -259
106128, -348, -470, 117, -22750, -38220, 560, -402, 325, -259
106129, -463, -366, 103, -24850, -57680, -2590, -405, 327, -267
106130, -418, 491, -5, -26390, -77910, -4760, -402, 319, -265
106131, -234, 1491, 54, -26250, -83020, -5250, -402, 324, -277
106132, -498, 2406, 50, -38710, -77980, -5180, -399, 310, -280
106133, -652, 1932, 828, -49070, -110040, -9520, -403, 315, -277
106134, -115, 2604, 1252, -44450, -138740, -17430, -399, 310, -295
106135, 602, 2847, 647, -22820, -124670, -18620, -405, 313, -298
106136, 2029, 1322, 185, 9450, -6370, -8260, -405, 309, -294
106137, 576, -1393, 394, 45430, 190190, 13230, -406, 315, -292
106138, -1929, -1758, 398, 32690, 137410, 420, -414, 312, -277
106139, -982, -509, 66, 22750, 37730, -1260, -402, 315, -265
106140, -654, 1089, -466, 27370, -10360, -280, -402, 315, -283
106141, 791, 1993, -257, 38570, 47530, 20860, -399, 316, -268
106142, 17, 931, 161, 24920, 45570, 22400, -400, 322, -265
106143, -544, 1619, -55, 2310, -24220, 11340, -390, 321, -268
106144, -418, 3055, -64, -18620, -95340, 3360, -415, 325, -277
106145, 117, 2949, 70, -28630, -115150, 2800, -400, 312, -282
106146, -188, -360, 139, -31220, -61390, 9240, -408, 318, -274
106147, -491, -965, 194, -33950, -58870, 7770, -397, 319, -292
106148, -422, -299, 121, -33880, -71330, 6720, -415, 321, -294
106149, -49, 674, -85, -27580, -60900, 10850, -418, 316, -303
106150, -129, 835, 81, -20790, -23590, 18340, -418, 312, -297
106151, -485, -382, 505, -22750, -9100, 19390, -421, 322, -297
106152, -37, 781, 979, -19670, -50750, 14490, -418, 324, -304
106153, 400, 2931, 632, -4130, -51940, 14350, -429, 327, -301
106154, 1599, 3002, 567, 19460, 22680, 22890, -414, 328, -301
106155, 810, 1975, 345, 46130, 158620, 39690, -414, 330, -292
106156, -898, 623, 167, 28490, 125720, 34020, -418, 336, -285
106157, -282, 776, 83, 6720, 28350, 27370, -423, 334, -288
106158, -144, 926, -138, -3640, -32130, 23450, -420, 334, -285
106159, -32, 874, -149, 2240, -47740, 26320, -418, 328, -283
106160, 431, -392, 115, 16590, 28140, 35420, -429, 330, -279
106161, -461, -781, 151, 11760, 36750, 34930, -427, 336, -282
106162, -236, -255, 123, 5810, 5810, 31150, -429, 340, -268
106163, 103, 1258, -106, 5950, -7000, 29820, -429, 328, -268
106164, 529, 2583, -107, 8050, 3500, 33250, -429, 334, -262
106165, -298, 1616, 217, -15190, -24850, 30660, -423, 325, -280
106166, -397, 1070, 214, -38150, -92050, 21910, -439, 330, -267
106167, -296, 974, 105, -49630, -137690, 15750, -436, 324, -285
106168, 247, 1652, 236, -41160, -135450, 16030, -441, 336, -283
106169, 639, 1577, 629, -6090, -22120, 23170, -442, 319, -280
106170, 340, 23, 622, 5600, 22960, 24990, -445, 327, -282
106171, -83, -617, 388, 11200, 32620, 23030, -439, 327, -286
106172, 251, 148, 78, 16660, 32130, 22680, -456, 327, -285
106173, 388, 798, -125, 23590, 51240, 25340, -447, 325, -288
106174, 210, 388, 63, 27370, 70350, 27300, -454, 328, -279
106175, -233, 1138, 22, 16310, 39970, 25690, -439, 333, -279
106176, 143, 1755, 61, 2100, -6650, 21770, -454, 343, -274
106177, 237, 1744, 46, -9380, -49700, 19390, -451, 334, -282
106178, 306, 855, 76, -13790, -69510, 16870, -450, 337, -283
106179, 82, 532, 84, -12250, -57050, 13930, -448, 340, -280
106180, -3, 1023, 85, -12530, -51100, 12110, -459, 339, -280
106181, 319, 1992, 88, -15190, -51800, 11620, -459, 345, -286
106182, 239, 2258, 133, -20580, -55090, 11270, -454, 333, -274
106183, 41, 1094, 430, -25760, -70210, 4200, -460, 334, -295
106184, 457, 570, 412, -18200, -62790, 2590, -460, 339, -292
106185, 636, 436, 9, -6370, -32970, 3360, -469, 343, -300
106186, 398, -6, 131, 3010, 15120, 8190, -459, 337, -289
106187, 227, -411, 81, 7910, 46060, 8820, -466, 343, -292
106188, -98, -47, 107, 4760, 18410, 3570, -474, 351, -298
106189, 10, 840, 26, 7280, 10640, 3920, -462, 342, -300
106190, 576, 892, 175, 13370, 15120, 6440, -468, 354, -297
106191, 569, 802, 416, 23450, 19740, 7980, -460, 351, -294
106192, 477, 2398, 282, 31780, 26390, 9870, -475, 351, -279
106193, 536, 2557, -52, 22120, 32130, 13370, -465, 349, -288
106194, -160, 1555, -18, 3500, -10780, 9800, -471, 343, -282
106195, -222, 1465, 33, -17150, -65170, 3850, -463, 349, -295
106196, -112, 1535, -99, -30520, -109830, -770, -478, 358, -282
106197, 228, 347, -132, -25130, -87290, -770, -474, 345, -292
106198, 364, -104, 72, -19880, -55370, 1260, -466, 346, -286
106199, -358, -597, 163, -19390, -42070, 2240, -469, 343, -295
106200, 42, -529, 384, -14350, -47740, -840, -474, 351, -303
106201, -104, 392, 295, -1890, -40810, -2870, -474, 334, -297
106202, 493, 653, -5, 26460, 69790, 6720, -480, 342, -304
106203, 511, -422, 196, 30240, 92120, 11340, -469, 336, -309
106204, -242, -726, 358, 25270, 98280, 7350, -475, 336, -292
106205, 128, 848, 10, 22960, 51240, 7350, -474, 345, -280
106206, 1123, 2732, -51, 25620, 29120, 9450, -474, 348, -283
106207, 1050, 1937, 149, 19040, 70280, 24220, -469, 351, -282
106208, -213, 1814, 102, 4690, 54950, 21980, -471, 345, -270
106209, 124, 2205, 83, -11830, 18830, 12530, -471, 355, -285
106210, 254, 2392, 54, -21420, -13580, 7770, -471, 342, -285
106211, 695, 416, 90, -16030, 13440, 5180, -472, 346, -288
106212, 645, -180, 182, -9170, 45290, 2660, -466, 334, -288
106213, 138, -81, 92, -3920, 57260, -350, -474, 348, -276
106214, 366, -29, 186, 2380, 61880, -3850, -463, 339, -286
106215, 151, 202, 98, 10710, 70560, -4900, -468, 352, -279
106216, 242, 314, -55, 23590, 112420, -1890, -459, 339, -277
106217, 556, 659, 69, 23380, 117040, 3500, -457, 346, -273
106218, 1059, 2496, 71, 19110, 112980, 9800, -462, 339, -273
106219, 1199, 3279, 194, 8890, 90230, 19810, -457, 346, -277
106220, 594, 2701, 41, -1820, 31290, 24290, -456, 348, -283
106221, -241, 317, 33, -12390, 16240, 15540, -459, 337, -273
106222, 275, 405, -3, -9520, 6090, 11130, -447, 343, -271
106223, 682, 298, 26, -4130, 35070, 8610, -462, 355, -268
106224, 172, 106, 17, -560, 55860, 7210, -456, 343, -273
106225, -5, 104, 31, -910, 63560, 4270, -450, 345, -262
106226, 365, 820, 50, -1960, 55650, 6230, -460, 358, -271
106227, 809, 1894, 35, -4550, 51240, 11550, -451, 349, -268
106228, 695, 2318, -18, -11830, 42490, 17990, -460, 358, -279
106229, 193, 1936, 125, -25200, 23590, 21700, -451, 357, -265
106230, 20, 1435, 567, -33950, -14420, 21350, -451, 357, -256
106231, 455, 1334, 133, -17220, 1540, 24710, -462, 354, -270
106232, 731, 685, 187, 2170, 58170, 32480, -454, 346, -264
106233, 709, -67, 346, 18270, 112280, 36190, -457, 351, -258
106234, 186, -407, 100, 19180, 125650, 31150, -460, 346, -259
106235, 141, 214, 33, 16730, 111300, 28700, -459, 361, -249
106236, 456, 586, -79, 19880, 120750, 30100, -451, 349, -252
106237, 518, 506, -135, 24640, 138320, 32970, -460, 352, -238
106238, 151, 34, 45, 24500, 143010, 33670, -444, 346, -237
106239, -13, 407, 77, 10360, 88620, 31080, -453, 354, -228
106240, 463, 1170, -36, 6230, 57120, 32760, -453, 354, -225
106241, 700, 1928, 83, 1890, 38150, 38990, -448, 358, -225
106242, 840, 2167, 429, -8540, 15610, 45290, -457, 346, -232
106243, 322, 2150, 608, -20090, -14210, 48930, -451, 357, -220
106244, 768, 2379, 339, -17220, -420, 54530, -448, 352, -240
106245, 884, 1247, 74, -3570, 58940, 59570, -462, 355, -226
106246, 708, 172, 212, 8400, 112350, 61880, -468, 354, -232
106247, 122, -149, 77, 10920, 137690, 60060, -463, 352, -222
106248, 127, -70, 26, 3290, 132300, 53130, -474, 352, -225
106249, 577, 612, -64, 4270, 140070, 53620, -457, 355, -219
106250, 449, 562, -44, 6510, 150710, 52990, -468, 360, -204
106251, 99, 367, 22, 2940, 136430, 52080, -478, 366, -219
106252, 208, 660, 191, -7980, 90300, 49350, -469, 358, -210
106253, 927, 1828, 267, -38920, -31290, 50680, -474, 351, -222
106254, 665, 1330, 453, -44660, -51450, 55370, -468, 367, -219
106255, 364, 849, 501, -37100, -28280, 58380, -475, 363, -223
106256, 817, 754, 409, -18760, 23100, 64190, -490, 367, -223
106257, 1199, 743, 273, 2940, 97440, 68390, -477, 360, -225
106258, 407, -150, 211, 24570, 178990, 68250, -480, 358, -210
106259, -259, -100, -32, 20650, 167300, 60270, -486, 364, -207
106260, 103, 187, 86, 14840, 135590, 53060, -483, 372, -204
106261, 183, 703, -15, 12950, 112700, 48930, -480, 369, -199
106262, 443, 1264, 128, 1260, 38920, 49700, -499, 369, -199
106263, 166, 1521, 344, -18270, -27230, 49560, -483, 367, -205
106264, 371, 1485, 453, -38780, -85820, 49350, -490, 376, -210
106265, 540, 1666, 372, -47110, -108920, 52850, -492, 364, -219
106266, 705, 1460, 309, -40320, -79310, 60550, -510, 370, -211
106267, 497, 332, 316, -7420, 28350, 76370, -502, 372, -222
106268, 204, 302, 103, 1890, 67620, 79310, -504, 378, -208
106269, -98, 391, 122, 910, 59080, 80500, -507, 373, -223
106270, -40, 554, 174, -4830, 39480, 81060, -519, 376, -214
106271, 13, 791, 91, -10710, 13160, 81550, -516, 379, -219
106272, 3, 585, 101, -18270, -34720, 86310, -531, 378, -213
106273, -49, 357, 116, -20440, -52570, 88550, -532, 384, -214
106274, 14, 590, 90, -21630, -59290, 89810, -532, 370, -219
106275, 158, 1362, 63, -22050, -62580, 92470, -538, 376, -216
106276, 458, 1899, 256, -26040, -58730, 99820, -552, 382, -214
106277, 170, 1373, 194, -31010, -64260, 102550, -550, 381, -226
106278, 127, 986, 94, -35910, -72380, 104510, -571, 379, -234
106279, 86, 775, -25, -39200, -75950, 105980, -573, 378, -226
106280, 99, 524, 27, -40320, -80080, 108010, -567, 382, -222
106281, 16, 98, 13, -39620, -83790, 112490, -586, 378, -229
106282, 6, 96, -23, -39270, -87500, 114310, -594, 379, -241
106283, -71, 132, -15, -39130, -93240, 116550, -603, 379, -231
106284, -47, 177, -5, -38500, -98770, 118510, -610, 372, -229
106285, -185, 152, -26, -37730, -104370, 121380, -619, 367, -234
106286, -252, 119, 126, -32900, -125370, 128310, -625, 375, -228
106287, -117, 392, 69, -27370, -142100, 133630, -640, 361, -232
106288, -27, 562, 2, -21280, -162750, 139790, -645, 360, -219
106289, 162, 492, -7, -17010, -187670, 145320, -651, 361, -223
106290, 422, 443, -57, -18480, -219590, 154630, -670, 358, -210
106291, 293, 421, -136, -19670, -227990, 157990, -669, 351, -210
106292, 274, 429, -205, -17150, -231210, 161140, -685, 345, -199
106293, 142, 387, -236, -11970, -231630, 163870, -702, 339, -187
106294, 189, 136, -224, -6580, -228690, 165830, -711, 339, -186
106295, -231, 110, -624, 4550, -223230, 162750, -718, 331, -174
106296, 565, 511, -770, 12180, -219590, 165340, -739, 339, -165
106297, 2258, 843, -705, 20440, -198030, 177450, -733, 315, -145
106298, 2313, 640, -539, 26110, -148050, 197330, -741, 309, -138
106299, 866, 175, -469, 25550, -116830, 213080, -762, 286, -139
106300, -68, 179, -535, 21560, -126700, 219100, -772, 298, -123
106301, 45, 277, -573, 25200, -132860, 220080, -771, 271, -123
106302, 2, -57, -604, 28420, -146720, 222390, -781, 265, -121
106303, 549, -436, -708, 27580, -169260, 226240, -790, 250, -106
106304, 463, -626, -1517, 20860, -347060, 240240, -795, 250, -81
106305, -3997, 936, -3997, -14490, -440160, 181160, -799, 223, -69
106306, 3997, 3997, -3997, -314860, -1359680, -1250130, -795, 241, 31
106307, 3997, -3280, 1357, 179130, -683620, -2117430, -693, 331, 108
106308, 3997, 3997, -3997, -208390, 497140, -1321040, -631, 369, 109
106309, 3997, 3997, -3997, -103040, -553840, 1428000, -673, 363, 72
106310, -809, 751, 625, 273840, 786660, 1267910, -730, 316, 93
106311, -1355, 1468, -3997, -54180, -242410, 1139740, -771, 270, 43
106312, -3997, 1407, -1539, 34650, 242410, 481810, -790, 234, 21
106313, -1741, 2760, -3997, 12180, -128660, 340550, -793, 219, 46
106314, 1783, 1665, -2629, -21070, -162120, -84560, -783, 222, 40
106315, -908, -2119, 547, 28210, 53970, -292810, -783, 238, 60
106316, 1935, 1186, -3565, 14770, -363930, 33320, -781, 231, 84
106317, 3980, -336, -922, 32970, -28070, -347200, -766, 253, 82
106318, -499, -106, 603, 14980, -80290, -12880, -762, 259, 102
106319, 107, 397, -708, 9240, -21910, -2240, -760, 250, 108
106320, -537, -602, -60, 12250, -48370, 2800, -751, 258, 120
106321, 735, 51, -528, 1260, -9030, 2240, -760, 259, 106
106322, 1044, 75, -269, 3780, -16870, 10920, -757, 261, 115
106323, 2254, 269, -746, -1960, 11060, -1540, -766, 264, 112
106324, 332, 150, -734, -7350, 23940, -2800, -768, 250, 109
106325, 1616, -31, -396, -8330, 34090, 5320, -754, 262, 100
106326, 36, 472, -584, -7980, 35630, 1330, -762, 262, 108
106327, 557, 106, -392, -6650, 23170, -1470, -762, 264, 100
106328, 1062, -195, -396, -3570, 9940, 630, -759, 244, 106
106329, 1065, 170, -717, -770, 8610, 2240, -759, 255, 108
106330, 979, 126, -683, -1960, 1750, 280, -768, 256, 102
106331, 866, 14, -414, 1540, -2170, -1120, -757, 259, 96
106332, 1102, 50, -353, 2450, -6300, 420, -756, 253, 103
106333, 515, 344, -790, 980, -5040, 0, -769, 258, 100
106334, 1198, 122, -371, 1610, -1400, -910, -760, 250, 94
106335, 644, 299, -751, 210, -3710, 70, -757, 258, 106
106336, 939, 32, -283, -210, 4060, 350, -757, 252, 103
106337, 832, -16, -303, -1190, 5880, -70, -759, 258, 106
106338, 789, 253, -737, -1120, 3710, 0, -757, 255, 102
106339, 887, -18, -331, -280, 910, 280, -763, 253, 109
106340, 663, 222, -663, 420, 1050, -350, -763, 246, 99
106341, 924, -28, -340, 490, -70, 140, -757, 250, 94
106342, 976, 62, -440, 0, -4620, -350, -766, 255, 96
106343, 692, 259, -655, 910, 2590, 210, -762, 258, 97
106344, 917, 68, -393, -630, -2310, -420, -762, 258, 103
106345, 745, 226, -614, 280, 4270, 280, -756, 256, 100
106346, 816, 167, -603, 70, 3640, 210, -756, 253, 94
106347, 792, 89, -486, -770, -560, -70, -763, 249, 94
106348, 833, 114, -499, 700, 1400, -70, -759, 252, 105
106349, 755, 133, -528, -70, -2310, -280, -759, 256, 97
106350, 895, 111, -471, 770, 0, -140, -763, 255, 96
106351, 888, 92, -438, 420, 1190, 70, -762, 256, 94
106352, 748, 206, -623, -420, -350, -210, -774, 256, 112
106353, 875, 68, -392, 140, 2170, -70, -762, 261, 96
106354, 767, 211, -640, -630, 420, -280, -766, 258, 105
106355, 899, 49, -416, -140, 420, 0, -759, 259, 94
106356, 874, 40, -395, 140, -280, -70, -762, 264, 99
106357, 733, 213, -618, 350, 0, -70, -762, 250, 99
106358, 902, 58, -410, 70, -1680, -280, -765, 258, 112
106359, 775, 224, -647, 280, 560, 0, -769, 252, 103
106360, 757, 209, -616, 210, 2030, 140, -777, 252, 105
106361, 856, 75, -423, -420, -210, -210, -772, 246, 100
106362, 777, 186, -586, 140, 1750, 0, -763, 256, 105
106363, 861, 83, -467, -490, -910, -210, -763, 249, 93
106364, 808, 162, -579, 280, 1190, 70, -760, 261, 105
106365, 806, 152, -526, 560, 980, 0, -771, 259, 99
106366, 815, 135, -511, -210, -1470, -210, -763, 262, 94
106367, 843, 138, -517, 350, 910, 0, -763, 264, 102
106368, 818, 148, -558, -420, -700, -140, -763, 259, 102
106369, 845, 118, -498, -350, -70, -140, -760, 253, 105
106370, 840, 101, -458, 140, 1120, -70, -756, 258, 99
106371, 790, 167, -578, -210, -630, -210, -756, 264, 105
106372, 870, 88, -469, 210, 280, 0, -768, 256, 102
106373, 786, 178, -599, -70, -210, -70, -768, 258, 94
106374, 771, 189, -583, 70, 70, -70, -763, 259, 102
106375, 869, 87, -445, 0, -70, -140, -759, 261, 99
106376, 789, 187, -604, -140, 630, -70, -765, 261, 108
106377, 869, 84, -463, -210, 140, -70, -763, 259, 97
106378, 776, 181, -585, 70, 1050, 0, -762, 261, 105
106379, 787, 174, -572, 210, 420, -70, -760, 252, 94
106380, 858, 96, -477, -140, -840, -140, -757, 253, 106
106381, 808, 168, -577, 210, 630, 0, -760, 256, 96
106382, 838, 109, -488, -140, -350, -140, -757, 253, 103
106383, 800, 161, -543, -210, -420, -140, -757, 256, 94
106384, 821, 145, -540, 140, 910, -70, -765, 261, 105
106385, 832, 125, -525, -210, -420, -140, -768, 259, 102
106386, 824, 136, -525, 210, 1050, 0, -768, 256, 105
106387, 808, 137, -522, -140, -350, -70, -771, 261, 105
106388, 813, 146, -542, -140, -560, -140, -759, 259, 103
106389, 847, 119, -505, 140, 490, 0, -759, 261, 100
106390, 806, 156, -560, -140, -70, -140, -762, 258, 108
106391, 837, 114, -482, 70, 700, -70, -765, 252, 99
106392, 791, 161, -551, -70, 70, -70, -765, 265, 109
106393, 804, 161, -570, -140, 70, -140, -763, 258, 103
106394, 851, 104, -486, 0, 280, -70, -771, 259, 103
106395, 793, 167, -563, 0, 280, -70, -765, 253, 102
106396, 838, 107, -470, 0, 70, -140, -765, 256, 105
106397, 798, 106, -487, -70, -210, -140, -771, 253, 97
106398, 807, 162, -567, 0, 560, 0, -763, 261, 109
106399, 837, 111, -489, -70, 0, -70, -763, 258, 100
106400, 798, 158, -544, 140, 700, -70, -760, 262, 102
106401, 832, 115, -489, -140, -350, -140, -760, 253, 94
106402, 838, 120, -511, -140, -280, -140, -769, 265, 109
106403, 816, 147, -539, 140, 700, 0, -759, 259, 94
106404, 821, 129, -507, -70, -140, -140, -760, 253, 105
106405, 816, 141, -521, 140, 490, -70, -765, 259, 108
106406, 824, 132, -522, -140, -280, -140, -765, 259, 103
106407, 818, 139, -534, -140, 0, -140, -765, 253, 100
106408, 824, 130, -507, 140, 560, -70, -768, 255, 88
106409, 807, 144, -530, -70, -70, -70, -759, 250, 96
106410, 832, 122, -503, 70, 350, -70, -759, 256, 100
106411, 838, 120, -506, 70, 350, -70, -762, 249, 103
106412, 806, 152, -543, 0, 210, -70, -757, 253, 108
106413, 829, 119, -492, 70, 280, -70, -760, 256, 100
106414, 807, 151, -544, 0, 70, -70, -763, 258, 109
106415, 840, 116, -500, 0, 140, -70, -763, 262, 93
106416, 834, 118, -497, 0, 210, -70, -756, 255, 102
106417, 804, 153, -542, 0, 350, -70, -756, 259, 100
106418, 832, 118, -495, -70, -70, -70, -762, 261, 90
106419, 813, 149, -545, 0, 280, -70, -760, 262, 103
106420, 837, 120, -508, -70, 70, -140, -762, 256, 103
106421, 826, 124, -503, -70, 70, -70, -768, 259, 108
106422, 812, 144, -530, 70, 350, -70, -756, 253, 102
106423, 828, 126, -512, -70, -210, -140, -765, 258, 93
106424, 822, 140, -534, 0, 350, -70, -760, 253, 111
106425, 818, 139, -522, 70, 420, -70, -762, 252, 99
106426, 817, 135, -518, 0, -70, -140, -754, 250, 108
106427, 823, 133, -520, 70, 280, -70, -763, 259, 93
106428, 823, 135, -529, -70, -70, -140, -756, 252, 99
106429, 828, 132, -518, 0, 420, -70, -760, 265, 108
106430, 823, 129, -509, 70, 280, -70, -751, 256, 100
106431, 815, 141, -531, 0, 0, -70, -768, 258, 99
106432, 832, 125, -513, 0, 210, -70, -768, 246, 97
106433, 818, 144, -539, -70, 140, -70, -760, 255, 97
106434, 829, 126, -507, 70, 280, 0, -763, 252, 97
106435, 828, 124, -504, 0, 70, -70, -762, 253, 103
106436, 815, 145, -538, 0, 140, -70, -771, 255, 100
106437, 833, 124, -511, 0, 70, -140, -759, 253, 102
106438, 815, 145, -537, 70, 280, -70, -760, 258, 108
106439, 813, 144, -531, 0, 280, -70, -757, 262, 103
106440, 830, 125, -511, 0, 0, -70, -762, 259, 100
106441, 819, 142, -534, 70, 280, -70, -766, 253, 102
106442, 827, 129, -514, 0, 140, -70, -759, 256, 102
106443, 816, 142, -528, 70, 280, -70, -756, 261, 102
106444, 819, 138, -526, 0, 210, -70, -762, 259, 108
106445, 826, 132, -520, 0, 0, -140, -766, 259, 105
106446, 822, 139, -526, 0, 350, -70, -763, 256, 97
106447, 821, 134, -519, -140, 140, -70, -766, 258, 100
106448, 820, 134, -518, 0, 350, -70, -762, 253, 97
106449, 826, 132, -521, -70, 210, -70, -763, 264, 96
106450, 821, 138, -529, 0, 140, -70, -762, 246, 94
106451, 824, 132, -516, 0, 350, -70, -772, 259, 105
106452, 816, 138, -524, 0, 140, -140, -765, 255, 106
106453, 820, 139, -530, 70, 70, -70, -762, 256, 97
106454, 828, 129, -517, -70, 210, -70, -765, 259, 99
106455, 818, 140, -530, 0, 140, -70, -766, 252, 100
106456, 824, 130, -511, 0, 210, -70, -765, 259, 103
106457, 816, 141, -528, 0, 140, -70, -765, 253, 103
106458, 821, 141, -532, 0, 140, -70, -766, 252, 103
106459, 827, 130, -515, 0, 140, -70, -765, 255, 108
106460, 816, 141, -528, 0, 280, -70, -768, 262, 103
106461, 824, 130, -512, 0, 140, -70, -771, 250, 99
106462, 818, 139, -529, 0, 70, -70, -771, 247, 102
106463, 820, 140, -529, 70, 280, -70, -760, 252, 115
106464, 822, 132, -515, -70, 140, -70, -760, 252, 96
106465, 818, 138, -523, -70, 210, 0, -765, 249, 103
106466, 824, 132, -518, 0, 0, -140, -759, 261, 109
106467, 823, 134, -522, -70, 70, -70, -763, 261, 100
106468, 820, 136, -522, 0, 280, -70, -762, 247, 103
106469, 819, 135, -520, 0, 70, -70, -759, 252, 96
106470, 822, 134, -519, 0, 210, -70, -759, 252, 96
106471, 822, 135, -524, 0, 140, -70, -757, 256, 105
106472, 820, 137, -524, 0, 140, -70, -756, 268, 105
106473, 822, 133, -517, 0, 210, -70, -766, 256, 100
106474, 819, 138, -525, 0, 140, -70, -765, 256, 96
106475, 825, 132, -519, 70, 140, -70, -766, 252, 100
106476, 821, 137, -528, -70, 280, -70, -751, 253, 108
106477, 818, 138, -524, 0, 140, -70, -766, 253, 100
106478, 824, 132, -516, 0, 140, -70, -765, 259, 102
106479, 820, 138, -525, 0, 210, -70, -754, 250, 102
106480, 826, 132, -519, 70, 70, -70, -765, 253, 102
106481, 823, 132, -516, 0, 210, -70, -766, 249, 100
106482, 819, 138, -524, 0, 210, -70, -753, 255, 106
106483, 824, 132, -517, 0, 70, -70, -760, 253, 99
106484, 821, 137, -526, 0, 210, -70, -769, 253, 109
106485, 824, 133, -519, 0, 210, -70, -762, 247, 109
106486, 821, 133, -518, 0, 140, -70, -759, 264, 100
106487, 821, 136, -523, 0, 210, -70, -766, 256, 97
106488, 823, 134, -521, 0, 140, -70, -771, 264, 106
106489, 821, 136, -523, 0, 210, 0, -765, 261, 111
106490, 822, 135, -520, 0, 210, -70, -759, 256, 105
106491, 822, 134, -522, 0, 70, -70, -754, 256, 103
106492, 822, 133, -522, 0, 210, -70, -763, 265, 111
106493, 823, 136, -523, -70, 70, -70, -754, 258, 100
106494, 823, 136, -520, 0, 280, -70, -762, 253, 103
106495, 821, 133, -518, 0, 140, -70, -760, 256, 94
106496, 822, 135, -523, 0, 70, -70, -763, 256, 105
106497, 824, 134, -521, 70, 210, -70, -763, 256, 102
106498, 820, 137, -524, -70, 140, -70, -763, 255, 108
106499, 822, 134, -517, -70, 210, -70, -759, 255, 102
106500, 824, 133, -520, 0, 210, -70, -757, 261, 103
106501, 821, 137, -525, 70, 210, -70, -765, 258, 93
106502, 824, 133, -520, 0, 140, -140, -765, 259, 91
106503, 819, 137, -522, 0, 140, -70, -762, 261, 90
106504, 822, 133, -524, 0, 140, -70, -757, 253, 103
106505, 824, 134, -519, -70, 70, 0, -748, 252, 97
106506, 822, 136, -523, 0, 210, -70, -766, 258, 109
106507, 822, 134, -520, -70, 210, -70, -759, 253, 97
106508, 820, 136, -523, 0, 210, -70, -760, 252, 105
106509, 822, 136, -524, 70, 210, -70, -762, 249, 93
106510, 823, 134, -521, 0, 140, -70, -772, 259, 100
106511, 821, 136, -522, 0, 210, -70, -760, 250, 103
106512, 821, 135, -520, 0, 140, -70, -760, 259, 102
106513, 822, 135, -520, 70, 210, -70, -759, 259, 103
106514, 823, 134, -522, 70, 210, -70, -765, 247, 94
106515, 822, 135, -521, 0, 140, -70, -762, 255, 99
106516, 822, 134, -520, -70, 210, -70, -766, 256, 108
106517, 822, 136, -522, -70, 140, -70, -757, 256, 96
106518, 822, 135, -524, 0, 210, -70, -765, 252, 106
106519, 823, 135, -521, 0, 140, 0, -759, 261, 105
106520, 821, 136, -522, 70, 210, -70, -756, 259, 103
106521, 822, 134, -520, -70, 140, -70, -760, 253, 96
106522, 821, 136, -523, 0, 140, -70, -765, 259, 106
106523, 821, 136, -523, 0, 210, -70, -768, 264, 97
106524, 822, 135, -519, -70, 140, -70, -762, 256, 90
106525, 821, 136, -523, 0, 140, -70, -765, 255, 102
106526, 823, 134, -520, 70, 140, -140, -766, 249, 103
106527, 822, 135, -523, 70, 210, -70, -769, 256, 111
106528, 820, 135, -523, 70, 140, -70, -765, 256, 105
106529, 822, 134, -519, 0, 210, -70, -760, 258, 108
106530, 822, 136, -522, 0, 140, -70, -757, 252, 102
106531, 823, 134, -521, 0, 210, -70, -769, 264, 97
106532, 822, 135, -521, -70, 140, -70, -760, 255, 105
106533, 821, 136, -521, 70, 70, -70, -769, 264, 105
106534, 821, 134, -522, 0, 140, -70, -760, 259, 96
106535, 822, 135, -521, 0, 210, -140, -763, 250, 102
106536, 822, 135, -522, -70, 210, -70, -765, 265, 108
106537, 822, 135, -522, 70, 140, -70, -763, 259, 109
106538, 822, 135, -522, 0, 140, -70, -757, 256, 99
106539, 822, 135, -522, 0, 210, -70, -762, 253, 97
106540, 822, 135, -521, 70, 210, -70, -763, 258, 94
106541, 821, 136, -522, 0, 140, -70, -762, 259, 106
106542, 821, 136, -522, 0, 140, -70, -762, 255, 99
106543, 822, 134, -521, 0, 140, -70, -759, 253, 94
106544, 822, 136, -523, 0, 210, -70, -768, 255, 103
106545, 822, 134, -521, 0, 210, -70, -759, 255, 100
106546, 822, 134, -521, 0, 140, -70, -762, 250, 94
106547, 823, 134, -522, 0, 140, -70, -763, 258, 97
106548, 823, 134, -521, 0, 140, -70, -763, 253, 100
106549, 822, 135, -522, 70, 210, -140, -763, 256, 106
106550, 822, 135, -520, -70, 210, -70, -760, 250, 99
106551, 823, 135, -522, 0, 140, -70, -762, 264, 96
106552, 823, 135, -522, 0, 140, -70, -760, 256, 102
106553, 822, 134, -521, 0, 210, -70, -757, 250, 103
106554, 822, 135, -522, 0, 210, -70, -759, 258, 91
106555, 821, 134, -520, 0, 210, -70, -769, 261, 99
106556, 822, 135, -521, -70, 140, -70, -756, 250, 103
106557, 821, 135, -521, -70, 140, -70, -762, 252, 93
106558, 823, 135, -521, 0, 140, -70, -766, 253, 100
106559, 823, 134, -520, 0, 210, -70, -771, 259, 94
106560, 821, 135, -522, -70, 140, -70, -762, 264, 99
106561, 821, 135, -521, 0, 210, -70, -754, 253, 99
106562, 821, 136, -521, 70, 210, -70, -762, 265, 102
106563, 821, 136, -522, 70, 210, -70, -760, 255, 97
106564, 823, 134, -521, 0, 210, -70, -768, 256, 103
106565, 822, 135, -522, -70, 280, -70, -756, 256, 103
106566, 821, 135, -522, -70, 140, -70, -772, 259, 108
106567, 822, 135, -521, 70, 210, 0, -763, 258, 109
106568, 821, 135, -521, 0, 210, -70, -762, 259, 100
106569, 822, 134, -522, -70, 140, -70, -762, 250, 99
106570, 822, 136, -521, 0, 210, -70, -760, 255, 108
106571, 821, 135, -522, 0, 210, -70, -765, 256, 100
106572, 822, 134, -521, 0, 140, -70, -762, 250, 106
106573, 822, 135, -521, 0, 140, -70, -763, 258, 102
106574, 821, 135, -522, 0, 210, -70, -762, 261, 106
106575, 821, 135, -520, 0, 210, -70, -762, 252, 100
106576, 821, 135, -522, 0, 210, -70, -759, 255, 109
106577, 822, 134, -521, 0, 210, -70, -759, 250, 100
106578, 822, 135, -522, 0, 140, -70, -759, 265, 103
106579, 822, 136, -521, 0, 140, -70, -765, 258, 100
106580, 822, 135, -521, 70, 210, -70, -763, 255, 105
106581, 822, 135, -522, 0, 140, -70, -771, 252, 102
106582, 823, 135, -522, 0, 140, -70, -765, 253, 102
106583, 822, 135, -522, 0, 70, -70, -766, 261, 102
106584, 822, 135, -522, 0, 140, -70, -768, 252, 102
106585, 821, 135, -522, 0, 140, -70, -757, 256, 103
106586, 822, 135, -521, 0, 140, -140, -763, 256, 109
106587, 823, 135, -522, 0, 140, -70, -760, 259, 97
106588, 822, 135, -521, 0, 140, -70, -765, 264, 102
106589, 822, 135, -520, -70, 140, -70, -750, 255, 100
106590, 822, 135, -522, 0, 140, -70, -771, 259, 99
106591, 822, 135, -521, -70, 210, -70, -766, 253, 97
106592, 822, 135, -522, 70, 210, -70, -756, 262, 112
106593, 822, 135, -521, 0, 140, -70, -759, 258, 94
106594, 822, 135, -521, 0, 140, -70, -769, 261, 105
106595, 822, 135, -521, -70, 210, -70, -774, 264, 103
106596, 822, 134, -521, 0, 210, -70, -756, 261, 109
106597, 822, 135, -520, 0, 280, -70, -760, 253, 99
106598, 822, 135, -522, -70, 210, -70, -762, 258, 102
106599, 822, 134, -522, -70, 210, -70, -765, 253, 100
106600, 821, 135, -520, 0, 140, -70, -762, 256, 109
106601, 822, 135, -520, 0, 140, -70, -762, 255, 96
106602, 822, 134, -522, 0, 210, -70, -762, 258, 94
106603, 823, 135, -522, 70, 140, -70, -759, 265, 103
106604, 822, 135, -521, 0, 210, -70, -760, 261, 97
106605, 822, 136, -522, 0, 140, -70, -765, 258, 93
106606, 822, 135, -522, 0, 140, -70, -762, 255, 100
106607, 822, 135, -522, 0, 140, -70, -760, 258, 94
106608, 822, 135, -521, 0, 140, -70, -765, 259, 102
106609, 822, 135, -522, 0, 210, -70, -760, 256, 105
106610, 823, 135, -523, 0, 140, -70, -768, 262, 109
106611, 823, 135, -522, 0, 140, -70, -769, 261, 94
106612, 820, 136, -520, -70, 210, -70, -760, 270, 100
106613, 822, 136, -521, 0, 210, -70, -757, 255, 102
106614, 823, 135, -522, 0, 210, -70, -763, 261, 105
106615, 822, 135, -522, 0, 140, -70, -762, 255, 105
106616, 821, 136, -521, 0, 140, -70, -769, 259, 103
106617, 822, 136, -520, 0, 70, -70, -763, 249, 102
106618, 822, 135, -522, 70, 140, -70, -762, 256, 103
106619, 823, 135, -521, 0, 140, -70, -762, 268, 94
106620, 822, 134, -522, 0, 140, -70, -757, 262, 94
106621, 821, 135, -520, 0, 140, -70, -751, 256, 100
106622, 821, 135, -522, 0, 140, -70, -759, 259, 97
106623, 822, 134, -521, -70, 210, -70, -759, 256, 97
106624, 823, 134, -521, 0, 140, -70, -769, 264, 114
106625, 822, 135, -521, -70, 140, -70, -759, 262, 103
106626, 821, 136, -520, 0, 140, -70, -765, 249, 99
106627, 822, 136, -521, 0, 140, -70, -760, 268, 108
106628, 822, 135, -521, 0, 140, -140, -756, 256, 99
106629, 822, 135, -521, 70, 210, -70, -769, 258, 90
106630, 821, 136, -521, 0, 140, -70, -759, 256, 84
106631, 822, 136, -520, 0, 140, -70, -765, 261, 96
106632, 822, 135, -521, 0, 140, -70, -762, 253, 93
106633, 822, 135, -521, 0, 140, -70, -757, 261, 103
106634, 821, 135, -522, 0, 210, -70, -762, 258, 97
106635, 823, 134, -521, 70, 140, -70, -762, 258, 91
106636, 823, 135, -521, 0, 210, -70, -768, 261, 106
106637, 823, 135, -522, 0, 210, -70, -772, 255, 99
106638, 822, 136, -521, 0, 210, -70, -760, 258, 97
106639, 822, 135, -521, 0, 210, -70, -765, 253, 100
106640, 821, 134, -521, 70, 210, -70, -757, 253, 93
106641, 822, 135, -521, 0, 210, -70, -763, 250, 94
106642, 822, 135, -522, -70, 140, -70, -769, 253, 100
106643, 822, 135, -521, -70, 210, -70, -772, 250, 103
106644, 822, 135, -522, -70, 210, -70, -756, 256, 103
106645, 821, 136, -521, 0, 210, -70, -766, 253, 102
106646, 802, 130, -515, 70, -420, -70, -765, 253, 103
106647, 837, 130, -515, 350, -840, 0, -768, 256, 103
106648, 822, 133, -528, 140, -350, -140, -753, 253, 106
106649, 828, 144, -520, 0, 280, -140, -754, 259, 100
106650, 810, 136, -515, -140, 420, -70, -762, 253, 103
106651, 803, 130, -514, 70, -280, 0, -754, 261, 100
106652, 822, 121, -513, 280, -1190, -70, -765, 261, 99
106653, 835, 135, -532, 420, -980, -70, -768, 252, 100
106654, 835, 151, -534, 70, -140, -140, -762, 259, 106
106655, 814, 148, -520, -70, 490, -70, -765, 264, 94
106656, 807, 135, -506, -140, 210, 0, -757, 255, 97
106657, 821, 130, -521, 70, -140, 0, -768, 265, 109
106658, 800, 96, -517, 700, -3080, 0, -757, 253, 97
106659, 808, 120, -508, 1330, -5320, 0, -763, 262, 102
106660, 833, 136, -516, 1540, -6230, -70, -760, 256, 105
106661, 842, 149, -536, 1470, -5390, -70, -759, 255, 100
106662, 841, 163, -547, 910, -3500, -70, -759, 265, 109
106663, 845, 167, -533, -280, 1260, -70, -757, 253, 109
106664, 837, 164, -529, -700, 3010, -70, -760, 258, 112
106665, 824, 152, -527, -1050, 4200, -70, -769, 255, 99
106666, 821, 139, -528, -1120, 4830, -70, -762, 255, 102
106667, 820, 130, -523, -1260, 5460, -140, -763, 256, 90
106668, 812, 128, -519, -1120, 4970, -140, -768, 262, 108
106669, 808, 125, -516, -910, 4340, -70, -756, 243, 99
106670, 814, 124, -513, -840, 3640, -70, -757, 253, 102
106671, 821, 128, -519, -630, 3150, -140, -756, 259, 99
106672, 828, 139, -522, -560, 2940, -140, -759, 252, 100
106673, 826, 142, -521, -630, 3220, -140, -757, 259, 93
106674, 823, 143, -520, -840, 3780, -140, -757, 259, 99
106675, 819, 139, -519, -910, 3990, -70, -760, 247, 102
106676, 818, 135, -516, -910, 3920, -140, -753, 264, 103
106677, 814, 123, -512, -630, 2730, -140, -756, 252, 97
106678, 820, 122, -513, -420, 1960, -70, -762, 259, 109
106679, 811, 122, -515, -210, 1120, -140, -750, 250, 99
106680, 819, 120, -504, 140, -140, 0, -762, 259, 102
106681, 828, 136, -519, 280, -420, -70, -762, 255, 106
106682, 828, 137, -506, 210, -910, -210, -766, 256, 105
106683, 826, 148, -536, 210, -280, -70, -760, 256, 109
106684, 813, 138, -509, 140, -70, -70, -760, 259, 108
106685, 834, 131, -509, 0, -350, -140, -763, 243, 105
106686, 818, 133, -516, 140, -280, -140, -766, 252, 100
106687, 842, 137, -519, 210, -210, -140, -760, 253, 102
106688, 815, 137, -514, 140, -280, -70, -763, 261, 97
106689, 825, 140, -517, 70, 70, -210, -769, 247, 99
106690, 832, 137, -521, 70, 210, -210, -762, 256, 106
106691, 832, 133, -521, 0, 350, -140, -762, 250, 94
106692, 823, 136, -519, 0, 420, -140, -763, 262, 105
106693, 816, 137, -513, -70, 210, -140, -762, 255, 96
106694, 822, 137, -517, 70, -70, -70, -765, 261, 96
106695, 829, 134, -522, 70, 0, -140, -759, 255, 88
106696, 830, 140, -524, 70, 350, -140, -763, 267, 97
106697, 826, 143, -522, -70, 630, -140, -768, 255, 100
106698, 812, 143, -517, -70, 630, -70, -757, 262, 102
106699, 819, 139, -511, -70, 560, 0, -763, 256, 90
106700, 833, 128, -522, -70, 630, -70, -757, 255, 97
106701, 840, 132, -525, -140, 1120, -70, -754, 258, 103
106702, 834, 143, -526, -350, 1890, -140, -768, 261, 100
106703, 818, 148, -517, -420, 2240, -140, -772, 262, 102
106704, 812, 146, -511, -490, 2030, 0, -763, 253, 99
106705, 820, 130, -514, -350, 1610, -70, -768, 249, 94
106706, 822, 126, -518, -280, 1190, -70, -768, 261, 100
106707, 825, 124, -515, -70, 630, -70, -763, 253, 93
106708, 826, 127, -515, 0, 420, -140, -762, 255, 97
106709, 818, 139, -514, 70, -140, -140, -768, 259, 102
106710, 822, 137, -512, 70, -350, -140, -771, 261, 97
106711, 823, 134, -516, 140, -490, -70, -760, 255, 93
106712, 823, 134, -520, 140, -490, -70, -759, 258, 90
106713, 818, 135, -520, 210, -840, 0, -763, 255, 99
106714, 805, 127, -505, 490, -2590, 140, -756, 252, 100
106715, 811, 125, -507, 910, -3780, 140, -760, 249, 97
106716, 825, 126, -519, 980, -4340, 140, -762, 258, 99
106717, 837, 132, -528, 980, -4340, 70, -756, 261, 94
106718, 835, 140, -530, 630, -3220, 70, -757, 253, 102
106719, 834, 149, -518, 560, -2450, 0, -756, 252, 109
106720, 828, 146, -520, 420, -1750, -70, -762, 256, 102
106721, 818, 139, -523, 280, -1400, 0, -754, 258, 103
106722, 817, 128, -518, 350, -1750, 0, -768, 249, 94
106723, 823, 124, -520, 560, -2100, 0, -763, 267, 91
106724, 817, 132, -522, 560, -2450, -70, -756, 253, 105
106725, 818, 139, -521, 700, -2730, 0, -760, 259, 99
106726, 813, 139, -517, 700, -3150, 0, -763, 253, 109
106727, 811, 133, -516, 770, -3640, 0, -769, 258, 99
106728, 819, 121, -522, 1050, -4970, 70, -762, 262, 111
106729, 828, 127, -527, 1190, -5320, 70, -766, 258, 100
106730, 836, 135, -530, 1190, -4970, 70, -756, 253, 108
106731, 838, 147, -534, 980, -3990, 0, -765, 262, 106
106732, 830, 158, -536, 280, -1190, 0, -759, 253, 94
106733, 834, 155, -532, 0, 280, 0, -763, 255, 99
106734, 835, 145, -531, -350, 1540, -70, -772, 250, 97
106735, 828, 138, -534, -560, 2380, -70, -757, 262, 106
106736, 829, 129, -526, -560, 2870, -140, -763, 261, 103
106737, 825, 139, -528, -700, 3710, -140, -760, 262, 111
106738, 819, 145, -530, -840, 4130, -140, -763, 252, 100
106739, 818, 143, -523, -980, 4410, -140, -762, 252, 106
106740, 814, 133, -517, -980, 4200, -140, -766, 250, 103
106741, 817, 124, -517, -840, 3920, -140, -766, 256, 99
106742, 819, 131, -526, -560, 3150, -140, -765, 258, 99
106743, 815, 136, -521, -560, 2870, -140, -765, 258, 103
106744, 816, 138, -515, -490, 2660, -140, -762, 259, 102
106745, 814, 137, -515, -490, 2240, -70, -768, 268, 96
106746, 813, 127, -519, -280, 1400, -70, -757, 255, 103
106747, 819, 125, -519, -140, 770, -70, -765, 261, 109
106748, 815, 125, -517, -70, 280, -70, -760, 243, 97
106749, 814, 129, -516, 140, -350, -70, -768, 255, 102
106750, 816, 133, -516, 210, -910, -70, -757, 247, 96
106751, 823, 133, -522, 280, -1470, -70, -766, 264, 102
106752, 827, 135, -523, 350, -1260, -70, -762, 261, 97
106753, 829, 137, -524, 280, -1050, -70, -768, 252, 103
106754, 828, 139, -524, 210, -630, -70, -763, 249, 97
106755, 824, 138, -523, 70, -210, -70, -760, 247, 100
106756, 826, 130, -520, 140, 0, -140, -768, 255, 99
106757, 827, 138, -523, 210, -210, -140, -766, 258, 103
106758, 819, 141, -524, 70, -70, -70, -751, 255, 99
106759, 826, 146, -524, 0, 350, -70, -754, 258, 97
106760, 826, 143, -527, -420, 1470, -70, -768, 264, 103
106761, 821, 136, -523, -420, 1680, -70, -754, 255, 102
106762, 817, 129, -517, -350, 1470, -70, -757, 253, 102
106763, 809, 125, -514, -210, 980, -140, -766, 253, 94
106764, 809, 126, -517, 70, 0, -70, -768, 261, 102
106765, 816, 127, -516, 420, -1680, -70, -760, 250, 99
106766, 821, 134, -522, 490, -1820, 0, -765, 255, 106
106767, 829, 140, -526, 420, -1680, -70, -762, 259, 94
106768, 831, 145, -527, 350, -1050, -70, -760, 261, 106
106769, 832, 146, -527, 70, -280, 0, -759, 259, 102
106770, 829, 139, -525, -210, 1190, -140, -757, 262, 115
106771, 825, 136, -523, -350, 1470, -70, -762, 259, 105
106772, 815, 130, -519, -350, 1400, -140, -757, 258, 99
106773, 816, 123, -516, -210, 910, -70, -756, 267, 103
106774, 811, 127, -516, 210, -630, -70, -757, 247, 112
106775, 819, 142, -522, 280, -1120, -70, -754, 256, 97
106776, 827, 143, -523, 280, -1190, 0, -757, 261, 109
106777, 837, 142, -526, 140, -490, -140, -760, 252, 97
106778, 820, 159, -538, -210, 910, 0, -766, 256, 106
106779, 827, 138, -527, -840, 3430, -140, -762, 258, 97
106780, 801, 120, -508, -770, 3080, -140, -760, 262, 106
106781, 799, 110, -500, -350, 1540, -70, -762, 267, 108
106782, 799, 99, -501, 210, -770, -140, -759, 256, 102
106783, 809, 99, -511, 840, -2660, -70, -753, 261, 102
106784, 858, 160, -552, 910, -2030, -280, -766, 261, 102
106785, 874, 204, -560, 0, 1330, -140, -748, 258, 100
106786, 820, 217, -541, -1050, 4270, -210, -759, 256, 103
106787, 787, 178, -503, -1540, 5740, 0, -762, 255, 99
106788, 803, 95, -508, -1050, 3360, 140, -757, 259, 105
106789, 805, 72, -519, -280, 1050, 0, -762, 256, 103
106790, 832, 77, -515, 280, -910, 0, -754, 256, 105
106791, 837, 120, -522, 560, -1750, -140, -757, 255, 100
106792, 823, 165, -527, 420, -980, -140, -771, 261, 99
106793, 839, 175, -529, -560, 2170, 0, -759, 247, 106
106794, 838, 147, -528, -980, 3850, 0, -760, 255, 106
106795, 832, 123, -522, -1050, 4480, -70, -760, 259, 94
106796, 818, 115, -515, -1050, 4340, -70, -759, 252, 99
106797, 810, 120, -511, -700, 3570, -210, -757, 258, 100
106798, 819, 124, -510, -210, 1470, -210, -766, 259, 109
106799, 830, 126, -517, 0, 910, -210, -765, 249, 106
106800, 837, 132, -522, 0, 1120, -280, -768, 261, 103
106801, 843, 141, -526, -140, 1820, -350, -753, 261, 106
106802, 835, 150, -520, -630, 3920, -490, -762, 264, 99
106803, 829, 147, -516, -840, 4760, -560, -766, 262, 99
106804, 834, 141, -514, -980, 5390, -630, -763, 250, 105
106805, 840, 135, -515, -1120, 5880, -770, -763, 259, 96
106806, 853, 136, -518, -1120, 6510, -980, -763, 250, 102
106807, 859, 128, -515, -1400, 8470, -1610, -760, 256, 88
106808, 859, 127, -510, -1470, 9660, -1890, -768, 264, 105
106809, 843, 125, -507, -1610, 10640, -2170, -763, 252, 106
106810, 856, 127, -499, -1610, 11760, -2170, -766, 265, 91
106811, 837, 131, -498, -1610, 14910, -2240, -756, 255, 93
106812, 786, 123, -471, -1470, 16590, -2100, -760, 261, 97
106813, 801, 141, -492, -1400, 15120, -1960, -762, 261, 88
106814, 796, 163, -509, -1400, 14630, -1540, -765, 262, 81
106815, 779, 176, -520, -1260, 12110, -1120, -757, 256, 87
106816, 837, 159, -505, -1400, 8190, -560, -765, 265, 94
106817, 830, 143, -489, -1330, 8120, -490, -769, 256, 93
106818, 834, 138, -484, -1470, 8540, -490, -775, 261, 88
106819, 831, 140, -487, -1400, 8890, -560, -757, 259, 96
106820, 832, 142, -493, -1400, 8610, -490, -769, 262, 91
106821, 833, 138, -491, -1260, 7770, -350, -763, 255, 85
106822, 832, 137, -486, -1050, 7140, -350, -757, 259, 91
106823, 836, 137, -485, -1050, 6650, -350, -759, 262, 82
106824, 845, 138, -485, -910, 6370, -280, -771, 259, 82
106825, 849, 138, -487, -980, 6580, -420, -760, 255, 84
106826, 855, 139, -487, -980, 6930, -560, -763, 262, 91
106827, 854, 139, -486, -1050, 7210, -630, -769, 267, 84
106828, 858, 138, -483, -1050, 7630, -770, -765, 252, 87
106829, 853, 139, -481, -1050, 8120, -840, -769, 264, 76
106830, 844, 139, -477, -980, 8190, -910, -765, 255, 82
106831, 845, 139, -478, -980, 7910, -910, -772, 264, 75
106832, 858, 136, -474, -980, 7840, -910, -766, 262, 79
106833, 857, 133, -472, -770, 8190, -980, -772, 265, 78
106834, 870, 132, -468, -770, 8400, -1120, -769, 258, 87
106835, 850, 138, -477, -770, 9380, -1400, -760, 256, 82
106836, 860, 142, -478, -770, 9450, -1400, -766, 256, 78
106837, 849, 143, -475, -770, 9450, -1330, -766, 274, 87
106838, 848, 146, -468, -770, 9310, -1330, -766, 252, 81
106839, 840, 150, -466, -770, 8470, -1260, -763, 265, 81
106840, 847, 151, -468, -700, 8260, -1120, -772, 255, 72
106841, 858, 149, -466, -840, 8190, -1050, -766, 264, 75
106842, 857, 150, -464, -910, 8750, -980, -762, 262, 78
106843, 858, 149, -466, -910, 8960, -1050, -760, 267, 72
106844, 883, 146, -462, -1120, 10570, -1190, -766, 252, 78
106845, 891, 145, -458, -1330, 12250, -1330, -768, 264, 76
106846, 886, 144, -453, -1540, 14070, -1400, -763, 262, 72
106847, 885, 142, -448, -1610, 15890, -1540, -771, 258, 67
106848, 891, 143, -442, -1750, 17780, -1680, -765, 264, 75
106849, 904, 139, -432, -1820, 22470, -1680, -766, 258, 73
106850, 908, 136, -427, -1750, 25970, -1540, -772, 264, 75
106851, 897, 139, -432, -1750, 28840, -1470, -774, 261, 67
106852, 893, 145, -441, -1820, 30660, -1540, -771, 261, 64
106853, 898, 154, -452, -2170, 31990, -1960, -778, 267, 64
106854, 926, 158, -457, -2520, 32550, -2240, -766, 262, 51
106855, 935, 154, -451, -2800, 33390, -2660, -769, 268, 60
106856, 957, 145, -443, -3080, 35140, -3080, -766, 258, 52
106857, 965, 134, -433, -3220, 37450, -3500, -769, 267, 57
106858, 1014, 126, -422, -3850, 42910, -4900, -769, 261, 42
106859, 1070, 126, -401, -3990, 48510, -5600, -762, 262, 34
106860, 1067, 122, -399, -4200, 56840, -6090, -771, 264, 43
106861, 1016, 120, -399, -4270, 63700, -6580, -777, 258, 39
106862, 974, 131, -410, -4480, 66710, -7280, -771, 261, 40
106863, 930, 165, -423, -4970, 64330, -9100, -777, 252, 28
106864, 920, 172, -422, -5460, 60620, -10150, -763, 261, 12
106865, 914, 180, -420, -6020, 55720, -11620, -775, 261, 21
106866, 915, 189, -416, -6790, 50750, -13090, -772, 262, 13
106867, 922, 192, -391, -8470, 40950, -16240, -769, 267, 13
106868, 968, 180, -379, -9240, 38010, -17710, -768, 279, 9
106869, 951, 171, -373, -9800, 35000, -19040, -763, 267, 7
106870, 953, 169, -364, -10220, 31430, -20300, -768, 288, 15
106871, 971, 174, -355, -10570, 28770, -21630, -763, 279, 12
106872, 994, 175, -330, -11060, 27090, -23800, -760, 279, 18
106873, 981, 176, -316, -11200, 27300, -24640, -763, 271, -1
106874, 957, 180, -309, -11270, 27370, -25270, -769, 273, 1
106875, 955, 194, -303, -11410, 27510, -25690, -766, 277, 3
106876, 969, 204, -292, -11480, 28280, -26040, -771, 282, -1
106877, 977, 212, -276, -11480, 31990, -26390, -765, 283, -7
106878, 981, 217, -267, -11550, 34440, -26530, -760, 291, 1
106879, 984, 225, -265, -11620, 37100, -26670, -769, 283, -13
106880, 987, 234, -266, -11760, 39900, -26880, -756, 288, -13
106881, 982, 242, -252, -12040, 44240, -27370, -756, 286, -21
106882, 985, 248, -247, -12180, 46480, -27720, -756, 289, -15
106883, 989, 253, -239, -12390, 48860, -27930, -756, 297, -21
106884, 987, 255, -227, -12600, 50820, -28490, -754, 288, -28
106885, 1017, 254, -213, -12740, 53620, -28910, -763, 300, -31
106886, 1033, 250, -191, -12810, 63210, -29610, -753, 297, -42
106887, 1022, 248, -185, -12740, 68390, -29820, -751, 300, -42
106888, 1018, 243, -172, -12740, 73290, -30030, -754, 297, -37
106889, 1016, 244, -174, -12530, 77700, -30240, -750, 303, -51
106890, 1003, 247, -196, -12250, 80570, -30310, -750, 301, -57
106891, 1023, 259, -196, -11410, 76930, -30730, -748, 298, -66
106892, 1043, 269, -174, -11130, 75110, -30940, -748, 309, -63
106893, 1034, 271, -149, -10990, 75180, -31290, -741, 307, -69
106894, 1003, 267, -121, -10710, 76300, -31920, -744, 306, -72
106895, 1044, 281, -89, -10220, 80150, -33250, -744, 304, -79
106896, 1057, 296, -94, -9940, 83160, -33600, -744, 313, -90
106897, 1036, 299, -99, -9590, 84560, -34090, -735, 310, -90
106898, 1009, 297, -96, -9450, 83370, -34510, -735, 307, -88
106899, 969, 304, -100, -9240, 79940, -35210, -736, 313, -103
106900, 920, 309, -83, -8820, 68180, -36890, -745, 318, -105
106901, 913, 306, -66, -8610, 61390, -38010, -729, 318, -106
106902, 919, 314, -53, -8400, 54180, -39270, -733, 313, -115
106903, 927, 328, -40, -8190, 46760, -40670, -726, 321, -118
106904, 947, 341, -30, -8120, 40040, -42070, -729, 321, -121
106905, 971, 345, -12, -8400, 30590, -44660, -730, 319, -115
106906, 964, 348, -6, -8540, 28420, -45570, -723, 330, -120
106907, 954, 354, 0, -8680, 27300, -46200, -721, 318, -124
106908, 934, 357, 10, -8750, 26250, -46830, -712, 325, -123
106909, 918, 360, 32, -8750, 23730, -47880, -717, 330, -124
106910, 917, 369, 37, -8680, 22470, -48230, -711, 333, -120
106911, 923, 381, 41, -8540, 21700, -48650, -712, 328, -126
106912, 924, 382, 45, -8540, 21840, -48930, -705, 337, -132
106913, 931, 386, 49, -8400, 22470, -49070, -702, 330, -142
106914, 918, 403, 56, -8260, 24150, -49210, -702, 334, -124
106915, 899, 412, 58, -8120, 24150, -49420, -697, 340, -141
106916, 889, 417, 62, -8120, 23590, -49770, -699, 334, -132
106917, 879, 418, 68, -8050, 22260, -50190, -702, 337, -144
106918, 885, 430, 67, -8050, 20720, -51100, -690, 346, -135
106919, 885, 437, 89, -7770, 18410, -51520, -688, 337, -135
106920, 877, 428, 119, -7350, 17640, -51590, -682, 343, -142
106921, 851, 430, 150, -6580, 17360, -51870, -681, 345, -142
106922, 844, 458, 162, -5320, 16730, -52080, -682, 351, -150
106923, 856, 442, 121, -2870, 15050, -52220, -681, 355, -150
106924, 836, 411, 101, -2450, 12460, -52570, -669, 342, -154
106925, 818, 440, 89, -2870, 8400, -53060, -676, 358, -145
106926, 799, 517, 82, -3850, 4270, -53830, -672, 366, -150
106927, 800, 564, 91, -4970, 980, -54600, -672, 364, -147
106928, 826, 511, 130, -6020, -1750, -55930, -667, 358, -145
106929, 859, 499, 131, -5810, -1400, -56210, -663, 354, -145
106930, 891, 497, 123, -5320, -560, -56140, -660, 373, -142
106931, 875, 489, 115, -5040, 280, -56000, -654, 363, -150
106932, 846, 494, 107, -4970, -210, -56280, -658, 363, -163
106933, 769, 565, 93, -5460, -2310, -56910, -651, 370, -147
106934, 760, 581, 91, -5880, -4830, -57610, -643, 366, -141
106935, 776, 581, 96, -6370, -6860, -58170, -654, 372, -147
106936, 793, 576, 101, -6790, -8260, -58380, -640, 358, -153
106937, 793, 569, 105, -7070, -8260, -58240, -645, 364, -148
106938, 768, 567, 104, -7070, -7490, -58030, -637, 369, -147
106939, 745, 571, 101, -7000, -7490, -57750, -637, 372, -151
106940, 729, 590, 98, -7000, -7560, -57540, -625, 376, -157
106941, 717, 608, 95, -7210, -7560, -57260, -640, 372, -150
106942, 707, 626, 91, -7630, -7280, -56560, -631, 372, -154
106943, 712, 633, 92, -7910, -6370, -56000, -624, 375, -157
106944, 707, 635, 97, -8050, -4900, -55440, -618, 373, -159
106945, 701, 638, 100, -8050, -3220, -54740, -627, 373, -153
106946, 678, 639, 100, -7840, -2170, -53480, -607, 366, -156
106947, 657, 646, 96, -7770, -2590, -53060, -619, 379, -154
106948, 656, 656, 94, -7770, -3220, -52570, -612, 378, -157
106949, 652, 665, 93, -7840, -3710, -52150, -610, 379, -157
106950, 661, 670, 98, -7840, -3290, -51590, -609, 381, -157
106951, 693, 684, 103, -8120, 770, -50610, -606, 381, -157
106952, 705, 699, 106, -8190, 4060, -50050, -603, 369, -159
106953, 709, 712, 109, -8120, 7700, -49420, -607, 387, -162
106954, 687, 718, 106, -8190, 10990, -48860, -594, 382, -159
106955, 638, 715, 100, -8190, 12180, -48440, -591, 379, -163
106956, 563, 702, 92, -8050, 7210, -48370, -586, 378, -166
106957, 545, 705, 95, -7980, 2590, -48510, -583, 384, -165
106958, 558, 713, 100, -7840, -2660, -48860, -580, 382, -168
106959, 567, 719, 101, -7770, -7420, -49140, -591, 388, -174
106960, 583, 723, 104, -7910, -14770, -49140, -577, 376, -166
106961, 591, 741, 107, -8120, -16870, -49000, -568, 381, -171
106962, 589, 750, 110, -8330, -17640, -48720, -582, 387, -168
106963, 579, 757, 113, -8610, -17710, -48440, -574, 385, -171
106964, 587, 764, 113, -8820, -17150, -48230, -570, 376, -169
106965, 598, 771, 114, -9240, -14770, -47740, -568, 385, -183
106966, 584, 773, 112, -9310, -13720, -47530, -562, 385, -172
106967, 570, 772, 111, -9310, -13930, -47390, -565, 384, -175
106968, 550, 770, 109, -9240, -15470, -47390, -556, 382, -177
106969, 532, 771, 106, -9310, -18060, -47530, -564, 382, -181
106970, 518, 783, 98, -9660, -25620, -48020, -559, 384, -175
106971, 526, 788, 98, -10010, -28840, -48300, -555, 375, -183
106972, 551, 791, 101, -10500, -30450, -48370, -550, 390, -180
106973, 592, 796, 109, -10850, -29750, -48370, -552, 381, -183
106974, 634, 808, 123, -11410, -18900, -47810, -544, 379, -169
106975, 679, 827, 124, -11690, -10640, -47460, -541, 387, -180
106976, 666, 829, 120, -12040, -2380, -47180, -544, 379, -180
106977, 649, 832, 114, -12320, 4830, -46970, -540, 373, -190
106978, 615, 831, 109, -12530, 10430, -47040, -544, 384, -183
106979, 545, 818, 99, -12880, 14980, -47530, -537, 382, -193
106980, 522, 815, 96, -13020, 14350, -48020, -528, 378, -192
106981, 499, 819, 98, -13020, 12600, -48510, -526, 376, -198
106982, 489, 827, 102, -13090, 10430, -49070, -523, 385, -193
106983, 480, 834, 109, -12950, 8610, -49490, -517, 375, -193
106984, 470, 841, 118, -13160, 6930, -49980, -519, 376, -196
106985, 458, 845, 119, -13300, 6650, -50050, -523, 378, -207
106986, 447, 846, 122, -13370, 6510, -50050, -513, 379, -201
106987, 439, 848, 125, -13440, 6440, -50050, -511, 366, -202
106988, 429, 850, 133, -13440, 7070, -49770, -508, 372, -211
106989, 426, 852, 136, -13440, 7840, -49630, -505, 369, -208
106990, 426, 857, 139, -13300, 9170, -49280, -498, 375, -204
106991, 422, 859, 142, -13300, 10640, -48930, -496, 375, -208
106992, 420, 862, 143, -13300, 12320, -48650, -499, 373, -210
106993, 389, 870, 142, -13160, 15330, -48020, -496, 366, -220
106994, 365, 874, 144, -13020, 15610, -47740, -484, 373, -207
106995, 350, 875, 148, -12880, 15540, -47390, -490, 366, -219
106996, 335, 876, 152, -12880, 15470, -47040, -489, 370, -213
106997, 326, 879, 156, -12740, 15470, -46760, -481, 363, -225
106998, 305, 882, 164, -12460, 15680, -45710, -481, 370, -214
106999, 289, 883, 169, -12250, 15540, -45080, -481, 366, -222
107000, 269, 887, 175, -11900, 15400, -44240, -478, 372, -220
107001, 246, 891, 178, -11760, 15120, -43470, -469, 366, -225
107002, 211, 894, 188, -11130, 13930, -41650, -472, 367, -235
107003, 203, 894, 191, -10850, 13020, -40740, -462, 361, -225
107004, 205, 895, 194, -10500, 12180, -39900, -466, 367, -223
107005, 209, 900, 197, -10290, 11270, -38990, -454, 354, -237
107006, 211, 905, 199, -10010, 10570, -38080, -460, 355, -235
107007, 197, 913, 208, -9450, 9940, -36050, -460, 366, -216
107008, 184, 913, 211, -9240, 9800, -34930, -456, 363, -235
107009, 174, 911, 215, -8960, 9800, -33880, -456, 349, -246
107010, 172, 910, 218, -8610, 9870, -32760, -457, 355, -238
107011, 169, 910, 219, -8260, 10010, -31710, -451, 352, -244
107012, 168, 915, 223, -7700, 9730, -29680, -450, 358, -243
107013, 168, 921, 224, -7350, 9590, -28700, -450, 355, -246
107014, 169, 925, 225, -7070, 9310, -27790, -447, 351, -237
107015, 173, 930, 226, -6860, 9240, -26950, -447, 348, -255
107016, 176, 933, 226, -6510, 9240, -25340, -450, 352, -243
107017, 180, 933, 226, -6440, 9380, -24570, -441, 342, -246
107018, 183, 935, 227, -6230, 9590, -23940, -438, 348, -243
107019, 187, 936, 227, -6160, 10010, -23170, -432, 349, -249
107020, 187, 937, 229, -5950, 10570, -22610, -435, 352, -240
107021, 180, 933, 228, -5670, 11410, -21490, -430, 339, -255
107022, 181, 935, 227, -5460, 11410, -21000, -430, 343, -247
107023, 182, 938, 227, -5320, 11550, -20650, -435, 345, -240
107024, 181, 942, 226, -5250, 11550, -20370, -432, 340, -246
107025, 179, 944, 225, -5110, 11130, -20090, -421, 343, -246
107026, 193, 947, 225, -5040, 10500, -19810, -427, 349, -247
107027, 193, 949, 226, -5110, 10290, -19740, -439, 345, -252
107028, 188, 948, 224, -5040, 9590, -19810, -420, 342, -250
107029, 190, 944, 225, -5040, 8820, -19880, -427, 349, -250
107030, 189, 948, 227, -5040, 7700, -20160, -424, 345, -258
107031, 188, 950, 228, -5110, 7140, -20230, -420, 334, -255
107032, 188, 950, 229, -5110, 6790, -20440, -423, 342, -259
107033, 186, 949, 230, -5110, 6440, -20580, -427, 343, -253
107034, 183, 951, 231, -5180, 6160, -20650, -417, 340, -249
107035, 183, 949, 234, -5250, 6230, -20860, -417, 342, -256
107036, 183, 948, 234, -5320, 6580, -20930, -423, 342, -250
107037, 182, 951, 234, -5250, 7000, -21070, -414, 337, -255
107038, 178, 952, 234, -5390, 7280, -21140, -412, 337, -259
107039, 172, 954, 235, -5320, 7490, -21280, -414, 340, -265
107040, 154, 951, 235, -5320, 7280, -21420, -406, 330, -276
107041, 148, 950, 235, -5320, 6930, -21560, -412, 342, -267
107042, 146, 951, 234, -5390, 6510, -21700, -414, 328, -252
107043, 142, 953, 236, -5390, 6020, -21840, -403, 331, -267
107044, 138, 953, 238, -5460, 5460, -21980, -408, 328, -264
107045, 135, 956, 238, -5460, 5390, -22050, -408, 331, -265
107046, 121, 959, 240, -5390, 5110, -22050, -396, 331, -262
107047, 112, 956, 241, -5390, 4620, -21980, -409, 331, -262
107048, 101, 952, 244, -5460, 3990, -21980, -405, 324, -277
107049, 89, 950, 247, -5320, 3150, -21630, -399, 330, -265
107050, 91, 950, 249, -5320, 3010, -21490, -400, 325, -267
107051, 92, 951, 250, -5180, 3150, -21350, -393, 324, -262
107052, 88, 954, 252, -5110, 3150, -21000, -394, 327, -271
107053, 81, 957, 252, -5040, 3360, -20370, -400, 321, -270
107054, 66, 957, 258, -4970, 3570, -19880, -391, 327, -267
107055, 55, 955, 258, -4900, 3850, -19460, -393, 328, -276
107056, 43, 952, 260, -4830, 3920, -18970, -400, 322, -282
107057, 39, 953, 261, -4690, 3850, -18410, -391, 328, -280
107058, 22, 955, 264, -4270, 3850, -17150, -396, 321, -265
107059, 15, 955, 265, -4200, 3850, -16380, -384, 328, -267
107060, 12, 954, 267, -4060, 4060, -15610, -385, 316, -274
107061, 7, 953, 267, -3920, 4410, -14770, -384, 313, -274
107062, 5, 952, 266, -3780, 4900, -13930, -384, 318, -276
107063, -12, 955, 262, -3360, 5040, -12110, -381, 315, -285
107064, -14, 960, 263, -3150, 4900, -11200, -393, 319, -274
107065, -16, 960, 265, -2940, 4830, -10360, -388, 313, -264
107066, -4, 954, 268, -2590, 4830, -9520, -382, 318, -270
107067, 0, 955, 268, -1960, 4550, -8330, -384, 319, -273
107068, -29, 950, 265, -1610, 1750, -8190, -376, 313, -270
107069, -15, 947, 271, -1330, -2170, -7980, -390, 307, -282
107070, 21, 950, 278, -1260, -3710, -7840, -384, 316, -274
107071, 35, 966, 279, -1260, -3640, -7490, -382, 316, -270
107072, 49, 965, 276, -1820, 0, -6230, -385, 310, -268
107073, 64, 957, 282, -1890, 1750, -5600, -375, 319, -276
107074, 29, 955, 280, -1680, 2730, -5180, -375, 312, -268
107075, 36, 955, 285, -1470, 2870, -4830, -375, 318, -271
107076, 3, 946, 280, -1190, 2520, -4550, -375, 315, -274
107077, 2, 951, 273, -770, 1120, -4130, -379, 309, -285
107078, 24, 963, 273, -700, 490, -3920, -385, 318, -273
107079, 20, 970, 274, -770, 140, -3500, -376, 310, -279
107080, 35, 968, 277, -910, 350, -3150, -379, 316, -276
107081, 28, 962, 279, -840, 1260, -2450, -385, 313, -274
107082, 21, 955, 276, -700, 1330, -2100, -382, 309, -271
107083, 20, 951, 276, -420, 980, -1890, -388, 304, -283
107084, 23, 949, 276, -210, 560, -1610, -387, 312, -274
107085, 22, 954, 275, -70, 350, -1330, -373, 310, -274
107086, 20, 967, 274, -140, 420, -770, -384, 319, -277
107087, 25, 965, 274, -140, 420, -490, -379, 306, -270
107088, 18, 962, 274, -140, 350, -210, -384, 315, -267
107089, 28, 958, 273, -140, 140, 70, -384, 316, -273
107090, 22, 955, 274, 70, 70, 350, -381, 315, -274
107091, 22, 955, 274, 280, 70, 910, -384, 310, -277
107092, 27, 960, 272, 420, -70, 1190, -379, 313, -264
107093, 21, 963, 271, 560, -140, 1470, -382, 318, -282
107094, 25, 963, 270, 490, -280, 1820, -385, 304, -270
107095, 23, 962, 269, 490, -420, 2380, -385, 321, -268
107096, 25, 959, 269, 630, -490, 2660, -387, 318, -270
107097, 25, 957, 269, 700, -560, 2940, -391, 304, -282
107098, 27, 957, 268, 840, -560, 3220, -382, 318, -265
107099, 26, 959, 268, 980, -560, 3500, -388, 312, -274
107100, 25, 962, 267, 980, -770, 3990, -379, 307, -271
107101, 27, 963, 267, 1050, -840, 4340, -378, 310, -274
107102, 26, 962, 266, 1190, -910, 4620, -385, 318, -271
107103, 30, 961, 266, 1190, -1050, 4970, -367, 315, -277
107104, 28, 959, 266, 1260, -1120, 5250, -381, 313, -276
107105, 30, 958, 266, 1540, -1190, 5880, -382, 319, -271
107106, 32, 959, 266, 1540, -1330, 6160, -378, 312, -268
107107, 30, 960, 265, 1680, -1190, 6440, -381, 312, -276
107108, 32, 961, 265, 1680, -1400, 6790, -384, 315, -274
107109, -73, 933, 218, 1750, -4340, 7070, -384, 313, -270
107110, -19, 968, 264, 1750, -10290, 7350, -379, 307, -276
107111, 55, 1001, 274, 1750, -9450, 7210, -382, 316, -277
107112, 93, 971, 273, 2100, -6650, 7980, -385, 312, -261
107113, 353, 842, 348, 2590, 3150, 8400, -381, 318, -264
107114, 108, 943, 232, 3920, 18970, 10640, -375, 322, -280
107115, 187, 1074, 281, 3640, 15890, 9520, -379, 325, -274
107116, 99, 1135, 262, 2450, 16870, 6930, -387, 313, -259
107117, 62, 1071, 237, 910, 10920, 5320, -390, 312, -265
107118, -64, 994, 184, -700, -1540, 3500, -379, 315, -273
107119, -69, 864, 195, -1330, -27370, 1400, -381, 322, -268
107120, 25, 861, 232, -280, -32340, 350, -387, 321, -267
107121, 31, 951, 251, 560, -33390, -1260, -387, 315, -276
107122, 231, 1062, 253, 1190, -31780, -2240, -390, 321, -279
107123, 420, 949, 250, 1470, -12530, -1050, -393, 321, -277
107124, 387, 899, 253, 980, 770, 420, -396, 324, -286
107125, 320, 945, 237, 210, 13510, 1400, -391, 318, -270
107126, 167, 990, 236, -770, 21140, 1470, -388, 316, -270
107127, 104, 1001, 244, -1400, 23380, 630, -393, 315, -274
107128, 43, 989, 237, -1330, 14280, -2100, -387, 313, -273
107129, 29, 972, 226, -840, 5950, -3430, -385, 316, -273
107130, 43, 935, 229, -420, -1330, -4760, -388, 322, -267
107131, 72, 916, 241, -420, -5390, -5740, -391, 321, -277
107132, 100, 944, 250, -910, -5530, -6510, -388, 325, -271
107133, 154, 1016, 250, -2170, -2310, -6650, -387, 313, -270
107134, 164, 992, 257, -2520, -280, -6440, -385, 312, -277
107135, 140, 953, 266, -2450, 2100, -6510, -378, 310, -273
107136, 115, 942, 260, -2100, 3920, -6860, -391, 318, -283
107137, 97, 940, 248, -1400, 4550, -7980, -384, 316, -274
107138, 103, 951, 252, -1540, 3780, -8470, -379, 313, -273
107139, 123, 982, 250, -1750, 3500, -8890, -382, 316, -265
107140, 124, 995, 252, -2310, 3780, -9240, -384, 318, -267
107141, 137, 990, 250, -2730, 4480, -9730, -381, 318, -268
107142, 136, 956, 253, -3290, 5810, -11060, -381, 310, -274
107143, 130, 949, 257, -3150, 6230, -11830, -381, 313, -271
107144, 121, 954, 256, -3150, 6720, -12530, -382, 315, -288
107145, 117, 953, 260, -2940, 7210, -13020, -384, 306, -279
107146, 107, 962, 259, -3010, 7700, -13370, -385, 304, -268
107147, 81, 972, 260, -3500, 9030, -14000, -375, 319, -274
107148, 71, 967, 261, -3850, 9590, -14280, -373, 315, -273
107149, 67, 961, 258, -3990, 9520, -14630, -376, 309, -273
107150, 61, 956, 259, -3990, 9030, -14910, -373, 315, -265
107151, 35, 953, 261, -3850, 7350, -15470, -379, 303, -271
107152, 30, 954, 264, -3710, 6650, -15820, -372, 307, -273
107153, 30, 960, 266, -3640, 6300, -15890, -372, 309, -289
107154, 37, 963, 267, -3640, 6510, -15890, -369, 303, -274
107155, 38, 965, 269, -3710, 7280, -15750, -375, 313, -276
107156, 39, 960, 277, -3780, 11130, -15050, -367, 303, -280
107157, 36, 952, 279, -3780, 13300, -14770, -376, 297, -282
107158, 18, 950, 274, -3640, 14770, -14420, -370, 294, -274
107159, 10, 951, 277, -3430, 15470, -14140, -369, 301, -285
107160, 4, 954, 280, -3360, 17150, -13650, -367, 304, -282
107161, 8, 953, 284, -3080, 18620, -13300, -363, 300, -292
107162, 10, 956, 287, -3080, 20300, -12880, -364, 300, -277
107163, 2, 961, 285, -2940, 22050, -12390, -357, 304, -268
107164, -17, 960, 283, -3010, 23240, -12040, -358, 304, -277
107165, -34, 958, 282, -2940, 23660, -11480, -369, 298, -279
107166, -33, 953, 283, -2800, 23660, -11130, -360, 307, -280
107167, -40, 948, 284, -2660, 24010, -10710, -358, 300, -276
107168, -51, 948, 282, -2380, 24080, -10290, -358, 303, -268
107169, -55, 948, 285, -2240, 24080, -9870, -360, 298, -274
107170, -49, 951, 288, -1960, 25060, -8890, -358, 294, -274
107171, -26, 949, 295, -1820, 26740, -8190, -360, 298, -274
107172, -23, 950, 300, -1610, 30380, -7280, -355, 291, -277
107173, -25, 967, 294, -1540, 34090, -6370, -357, 291, -271
107174, -8, 966, 299, -1400, 43750, -4270, -360, 295, -265
107175, 47, 941, 311, -1120, 52150, -2730, -352, 300, -261
107176, 50, 937, 315, -840, 61320, -980, -352, 295, -270
107177, 59, 939, 317, -560, 71820, 980, -352, 297, -253
107178, 66, 938, 318, -350, 83930, 3080, -354, 285, -264
107179, 77, 956, 307, -70, 110390, 7770, -351, 292, -249
107180, 60, 967, 296, -210, 124040, 10150, -345, 292, -241
107181, 58, 968, 289, -420, 137340, 12390, -334, 291, -238
107182, 11, 970, 262, -560, 148750, 14350, -343, 294, -219
107183, -31, 962, 249, -840, 156380, 16030, -342, 291, -226
107184, -143, 966, 216, -1050, 163310, 18480, -336, 300, -219
107185, -166, 977, 201, -1260, 161910, 18830, -339, 294, -205
107186, -196, 966, 203, -1330, 158690, 18900, -337, 300, -199
107187, -216, 970, 197, -1540, 152600, 18550, -328, 295, -193
107188, -209, 985, 192, -2030, 138670, 17570, -342, 306, -181
107189, -285, 971, 177, -2310, 128380, 16870, -331, 304, -180
107190, -277, 955, 184, -2450, 115080, 15750, -336, 301, -168
107191, -294, 960, 186, -2520, 102550, 14700, -342, 298, -165
107192, -314, 967, 185, -2380, 88340, 13370, -339, 303, -160
107193, -320, 964, 192, -2030, 59150, 10640, -345, 301, -162
107194, -334, 969, 190, -1750, 43610, 9310, -340, 301, -153
107195, -329, 977, 189, -1610, 27370, 7700, -339, 297, -157
107196, -322, 975, 192, -1400, 10780, 6090, -334, 300, -148
107197, -273, 964, 204, -1190, -4060, 4410, -331, 307, -151
107198, -108, 969, 226, -700, -20160, 2170, -337, 312, -154
107199, -50, 975, 234, -770, -21840, 1680, -336, 306, -157
107200, -5, 973, 242, -770, -21000, 1470, -339, 306, -160
107201, 11, 965, 248, -840, -18340, 1540, -328, 303, -159
107202, 27, 959, 256, -630, -9170, 1400, -340, 304, -160
107203, 36, 955, 269, -420, -3500, 1400, -336, 307, -163
107204, 20, 953, 272, -140, 1400, 1400, -337, 304, -160
107205, -5, 958, 273, -70, 4480, 1260, -348, 303, -154
107206, -44, 968, 266, 70, 5320, 980, -334, 303, -150
107207, -96, 971, 263, 0, 1890, -140, -343, 298, -156
107208, -99, 966, 265, -70, -770, -840, -339, 298, -159
107209, -94, 962, 266, 0, -3220, -1400, -339, 298, -160
107210, -85, 958, 267, 70, -5320, -1960, -334, 301, -153
107211, -80, 955, 268, 210, -6860, -2310, -334, 300, -157
107212, -89, 956, 264, 420, -8820, -2660, -336, 295, -166
107213, -102, 962, 259, 560, -9730, -2940, -331, 297, -163
107214, -113, 967, 255, 490, -11060, -3080, -333, 306, -168
107215, -116, 969, 253, 490, -12670, -3290, -339, 298, -165
107216, -116, 966, 250, 350, -16800, -3640, -336, 301, -166
107217, -122, 965, 248, 490, -18970, -3780, -340, 298, -168
107218, -121, 963, 247, 490, -21210, -3990, -342, 301, -162
107219, -114, 960, 246, 490, -23030, -4130, -340, 300, -171
107220, -96, 958, 250, 560, -24220, -4270, -343, 301, -166
107221, -62, 961, 257, 770, -23240, -4060, -346, 303, -163
107222, -50, 966, 259, 700, -21630, -3990, -330, 306, -168
