Time [mS], AccX [mg],AccY [mg],AccZ [mg],GyroX [mdps],GyroY [mdps],GyroZ [mdps],MagX [mgauss],MagY [mgauss],MagZ [mgauss]
332, 25, 966, 251, -210, 420, -1400, -412, 321, -133
333, 22, 966, 250, -210, 350, -1400, -411, 321, -133
334, 24, 966, 250, -140, 280, -1470, -409, 318, -123
335, 17, 973, 254, -980, -420, -2450, -406, 322, -127
336, 32, 963, 248, -560, 70, -2800, -400, 319, -129
337, -36, 1015, 272, -2520, 70, -8540, -409, 330, -123
338, 61, 940, 242, -4830, 840, -19600, -409, 316, -132
339, 25, 964, 256, -1610, 1050, -8050, -411, 318, -130
340, 20, 965, 258, -2030, 1330, -9240, -406, 313, -133
341, 22, 963, 259, -1960, 1470, -8820, -415, 321, -130
342, 7, 969, 261, -2030, 1540, -9100, -408, 312, -130
343, 18, 958, 256, -1750, 1050, -8750, -403, 319, -139
344, 7, 964, 260, -770, 700, -4970, -408, 313, -138
345, 1, 967, 261, -770, 630, -4270, -400, 313, -132
346, 0, 966, 261, -560, 630, -3850, -405, 312, -136
347, 0, 965, 259, -490, 560, -3360, -405, 316, -130
348, -2, 966, 258, -420, 700, -3080, -406, 315, -138
349, -1, 966, 256, -280, 700, -2660, -415, 318, -135
350, 1, 966, 256, -210, 700, -2450, -397, 316, -133
351, 0, 968, 254, -210, 630, -2310, -402, 321, -130
352, 1, 967, 253, -280, 630, -2170, -412, 309, -136
353, 5, 966, 252, -280, 420, -2030, -403, 322, -133
354, 6, 967, 252, -140, 420, -1960, -405, 316, -133
355, 6, 966, 253, -140, 560, -1890, -400, 307, -135
356, 3, 966, 254, -140, 630, -1890, -409, 313, -136
357, 2, 966, 255, -140, 630, -1820, -405, 316, -130
358, 1, 965, 257, -70, 490, -1680, -403, 312, -136
359, 1, 965, 258, -140, 420, -1750, -403, 312, -142
360, 1, 966, 259, -140, 420, -1750, -406, 313, -130
361, 1, 964, 260, -140, 420, -1750, -403, 315, -135
362, 4, 963, 261, -70, 490, -1680, -403, 316, -130
363, 5, 963, 262, -140, 420, -1820, -403, 315, -136
364, 6, 962, 264, -70, 420, -1820, -400, 309, -130
365, 5, 962, 265, -70, 420, -1890, -409, 307, -132
366, 6, 962, 266, -70, 420, -1960, -409, 304, -133
367, 7, 963, 263, -70, 560, -2100, -400, 301, -139
368, 4, 964, 262, -70, 700, -2100, -397, 307, -135
369, 3, 965, 260, -70, 700, -2170, -397, 319, -132
370, 0, 965, 260, -70, 770, -2240, -403, 316, -135
371, 0, 964, 260, -70, 770, -2240, -409, 313, -129
372, 1, 962, 261, -70, 490, -2310, -397, 313, -135
373, 0, 963, 261, -70, 490, -2310, -402, 318, -130
374, 3, 964, 260, 0, 560, -2450, -403, 307, -133
375, 5, 964, 261, -70, 630, -2450, -408, 313, -135
376, 6, 965, 260, -70, 770, -2660, -403, 315, -136
377, 7, 962, 261, -140, 700, -2800, -406, 318, -136
378, 9, 960, 261, -210, 770, -2940, -396, 313, -136
379, 12, 959, 260, -140, 700, -3080, -402, 310, -133
380, 12, 961, 259, -210, 770, -3290, -397, 310, -135
381, 12, 962, 256, -140, 980, -3640, -400, 307, -133
382, 12, 964, 253, -280, 1050, -3780, -396, 315, -138
383, 12, 965, 250, -210, 1120, -3990, -400, 310, -126
384, 10, 963, 246, -280, 1260, -4200, -399, 310, -133
385, 8, 962, 243, -280, 1470, -4340, -405, 309, -130
386, 0, 965, 241, -210, 1610, -4620, -399, 304, -130
387, -5, 966, 241, -140, 1540, -4760, -402, 303, -139
388, -7, 966, 242, -140, 1330, -4830, -400, 307, -133
389, -12, 967, 242, -140, 1260, -4900, -411, 315, -133
390, -13, 969, 246, -280, 1260, -4900, -396, 306, -138
391, -17, 970, 250, -280, 1330, -4760, -399, 306, -136
392, -21, 969, 253, -350, 1400, -4760, -397, 313, -145
393, -26, 968, 255, -280, 1470, -4620, -403, 310, -129
394, -30, 966, 257, -280, 1400, -4480, -394, 304, -138
395, -31, 967, 261, -210, 1050, -4270, -402, 310, -136
396, -29, 968, 263, -210, 1050, -4130, -400, 304, -138
397, -32, 970, 265, -210, 980, -3990, -400, 297, -139
398, -56, 1002, 248, -280, 1260, -3640, -397, 312, -142
399, -111, 1053, 226, -770, 1400, -2870, -400, 312, -138
400, -148, 1014, 193, -1820, 980, -490, -402, 312, -142
401, -119, 939, 201, -1400, 840, 770, -394, 306, -138
402, -94, 874, 224, -560, -420, 1750, -393, 312, -132
403, -69, 853, 251, 910, -1330, 2170, -403, 310, -136
404, -43, 901, 272, 2170, -3150, 1750, -399, 304, -139
405, 20, 1043, 292, 1540, -3220, 1400, -394, 309, -142
406, 51, 1047, 293, 490, -2310, 1050, -400, 294, -144
407, 82, 994, 296, -910, -1750, 770, -394, 312, -138
408, 86, 918, 305, -1330, -490, 350, -396, 307, -129
409, 20, 880, 333, 70, 2660, -770, -403, 301, -133
410, -12, 935, 335, 1260, 3990, -1330, -393, 307, -133
411, -29, 996, 323, 1960, 4410, -1610, -399, 307, -132
412, -43, 1024, 302, 1680, 3640, -1470, -400, 312, -133
413, -65, 1009, 279, 840, 2660, -910, -399, 309, -141
414, -112, 957, 260, -1190, -70, 630, -393, 315, -129
415, -120, 950, 270, -1190, -1120, 1120, -402, 303, -142
416, -122, 957, 285, -770, -1820, 1610, -390, 318, -136
417, -102, 967, 290, 70, -2520, 2240, -394, 303, -130
418, -96, 976, 283, 1050, -3150, 4060, -396, 306, -130
419, -70, 984, 261, 910, -2520, 5180, -405, 312, -129
420, -57, 1003, 257, 560, -840, 6230, -402, 301, -132
421, -63, 1017, 255, 280, 910, 7210, -402, 304, -142
422, -69, 1008, 254, 210, 2450, 8050, -402, 309, -138
423, -91, 961, 246, 980, 2590, 9660, -399, 309, -130
424, -103, 948, 239, 1610, 1680, 10430, -405, 315, -132
425, -106, 952, 235, 1820, 210, 11130, -403, 307, -132
426, -112, 977, 231, 1610, -1960, 11760, -402, 316, -139
427, -98, 1003, 236, 770, -4620, 12180, -402, 309, -130
428, -45, 1007, 246, -770, -7560, 12950, -399, 319, -135
429, -19, 983, 251, -840, -7070, 13370, -397, 304, -133
430, 0, 960, 256, -490, -5530, 14000, -402, 324, -132
431, 5, 946, 257, 420, -3430, 14630, -402, 319, -132
432, 0, 940, 258, 1890, -280, 15680, -408, 321, -133
433, -14, 972, 255, 1890, -280, 15890, -406, 316, -133
434, -15, 985, 253, 1540, -1330, 15960, -403, 312, -135
435, -8, 983, 255, 840, -2800, 15890, -411, 312, -135
436, 1, 975, 256, 210, -4270, 15680, -405, 319, -127
437, 31, 946, 262, 70, -5530, 15400, -409, 324, -136
438, 42, 942, 264, 210, -5390, 15260, -403, 313, -135
439, 45, 947, 267, 560, -5040, 15120, -412, 322, -138
440, 50, 958, 268, 700, -4620, 15050, -406, 313, -124
441, 54, 962, 269, 840, -4130, 14910, -412, 318, -130
442, 61, 961, 267, 770, -2800, 14770, -409, 313, -136
443, 61, 959, 263, 770, -2170, 14630, -412, 318, -135
444, 60, 953, 264, 770, -1890, 14490, -420, 327, -133
445, 51, 953, 264, 770, -2240, 14350, -424, 333, -132
446, 52, 954, 264, 630, -3570, 13720, -417, 316, -129
447, 59, 952, 263, 560, -4200, 13440, -414, 327, -133
448, 66, 955, 260, 490, -4550, 13160, -421, 327, -127
449, 75, 956, 260, 420, -4410, 12880, -421, 322, -136
450, 81, 960, 259, 350, -3990, 12810, -421, 331, -123
451, 80, 959, 259, 560, -2660, 12670, -423, 324, -129
452, 77, 958, 260, 700, -2100, 12530, -427, 322, -124
453, 74, 955, 259, 770, -1820, 12530, -418, 319, -129
454, 73, 954, 256, 910, -1540, 12320, -423, 325, -127
455, 76, 955, 252, 980, -1470, 12250, -420, 331, -135
456, 80, 965, 246, 770, -2100, 11900, -433, 333, -138
457, 73, 972, 249, 490, -2520, 11690, -426, 333, -124
458, 71, 970, 252, 280, -3290, 11480, -421, 328, -124
459, 58, 966, 254, 70, -4060, 11340, -415, 328, -132
460, 66, 953, 258, 70, -4830, 11410, -420, 334, -126
461, 80, 952, 262, 280, -4270, 11690, -429, 325, -126
462, 72, 964, 263, 630, -3150, 11970, -420, 336, -127
463, 78, 965, 265, 910, -2170, 12320, -429, 334, -120
464, 77, 970, 265, 1050, -1330, 12600, -433, 328, -138
465, 74, 964, 269, 980, -1400, 12810, -432, 333, -126
466, 79, 955, 273, 840, -2170, 12810, -441, 327, -133
467, 78, 959, 273, 560, -3010, 12670, -427, 330, -133
468, 97, 956, 277, 420, -3920, 12530, -433, 334, -130
469, 97, 956, 279, 210, -4620, 12390, -429, 331, -126
470, 115, 948, 279, 210, -4410, 12250, -433, 336, -129
471, 114, 950, 284, 420, -3640, 12110, -429, 331, -124
472, 135, 948, 280, 490, -3080, 12110, -442, 330, -132
473, 114, 955, 282, 770, -2240, 12040, -429, 343, -130
474, 113, 953, 278, 910, -1400, 11900, -438, 342, -130
475, 124, 958, 275, 980, -1400, 11830, -439, 339, -130
476, 113, 966, 274, 910, -1540, 11760, -439, 340, -133
477, 126, 961, 273, 770, -1890, 11620, -433, 343, -123
478, 115, 961, 274, 560, -2380, 11550, -445, 333, -132
479, 130, 957, 272, 140, -3570, 11130, -430, 337, -127
480, 125, 949, 275, 140, -3710, 10920, -436, 340, -132
481, 146, 940, 279, 70, -3500, 10920, -441, 343, -136
482, 134, 953, 276, 420, -2240, 10780, -450, 336, -126
483, 155, 955, 272, 490, -1820, 10850, -435, 349, -121
484, 144, 949, 278, 770, -560, 10780, -444, 334, -124
485, 131, 959, 274, 770, -350, 10710, -444, 345, -120
486, 141, 956, 275, 770, -280, 10640, -441, 346, -133
487, 116, 956, 275, 630, -770, 10570, -447, 337, -130
488, 126, 959, 270, 140, -2660, 10220, -450, 337, -126
489, 157, 947, 275, -140, -3430, 10010, -451, 330, -136
490, 142, 947, 276, -210, -3710, 9800, -442, 337, -139
491, 182, 940, 275, -140, -3570, 9520, -453, 345, -127
492, 185, 941, 274, 140, -2730, 9310, -444, 348, -129
493, 194, 939, 272, 420, -630, 8540, -454, 342, -124
494, 200, 939, 272, 420, -210, 8050, -442, 340, -129
495, 193, 944, 271, 490, -70, 7560, -442, 349, -124
496, 197, 941, 273, 350, -140, 6930, -451, 334, -135
497, 184, 937, 272, 140, -630, 6370, -456, 342, -136
498, 175, 934, 270, -140, -2100, 5250, -454, 346, -132
499, 177, 932, 271, -140, -2730, 4760, -450, 352, -127
500, 169, 931, 272, -210, -3080, 4410, -447, 343, -133
501, 177, 932, 278, -140, -3080, 4060, -456, 334, -127
502, 198, 940, 284, 210, -1750, 3640, -451, 349, -136
503, 197, 948, 284, 350, -630, 3430, -456, 342, -118
504, 192, 951, 284, 490, 140, 3220, -450, 337, -135
505, 179, 949, 281, 350, 420, 3010, -460, 333, -130
506, 169, 944, 280, 280, 210, 2800, -457, 342, -126
507, 159, 937, 286, -70, -1190, 2170, -450, 339, -114
508, 163, 935, 292, -70, -1890, 1960, -450, 345, -136
509, 173, 926, 299, -70, -2310, 1680, -453, 340, -123
510, 179, 931, 300, 70, -2310, 1470, -456, 343, -126
511, 187, 931, 306, 280, -1680, 1120, -448, 340, -126
512, 176, 929, 308, 700, -70, 1050, -448, 346, -126
513, 172, 930, 306, 770, 420, 1050, -459, 342, -124
514, 168, 934, 303, 910, 840, 980, -445, 348, -120
515, 166, 936, 308, 1050, 1470, 980, -457, 337, -130
516, 164, 932, 309, 1610, 3220, 1260, -450, 349, -124
517, 162, 933, 302, 2030, 3990, 1400, -451, 337, -138
518, 162, 936, 300, 2380, 4900, 1610, -447, 340, -123
519, 160, 943, 292, 2660, 5600, 1680, -459, 342, -121
520, 159, 949, 293, 2870, 6160, 1890, -448, 343, -127
521, 156, 953, 290, 2870, 6510, 2030, -444, 346, -123
522, 152, 957, 281, 2730, 6440, 2100, -453, 342, -126
523, 145, 957, 279, 2590, 5880, 2100, -456, 339, -127
524, 140, 956, 282, 2310, 4830, 2030, -442, 345, -118
525, 140, 955, 288, 1680, 2380, 1890, -453, 342, -117
526, 150, 958, 279, 1260, 1190, 1680, -450, 345, -120
527, 154, 964, 277, 910, 280, 1540, -450, 340, -126
528, 157, 962, 280, 560, -280, 1470, -448, 340, -123
529, 160, 957, 279, 140, -700, 1470, -454, 346, -121
530, 166, 936, 271, 70, 280, 1750, -444, 340, -120
531, 164, 935, 268, 350, 1960, 1960, -451, 346, -112
532, 169, 926, 274, 980, 4130, 2520, -448, 337, -117
533, 168, 918, 280, 1820, 6650, 3150, -454, 339, -118
534, 173, 910, 285, 2660, 9100, 3710, -445, 345, -124
535, 176, 924, 287, 3990, 13300, 4690, -450, 339, -124
536, 175, 931, 285, 4550, 14840, 5040, -454, 345, -133
537, 176, 928, 286, 4970, 16240, 5320, -448, 337, -118
538, 175, 923, 289, 5250, 17640, 5600, -448, 342, -117
539, 185, 924, 287, 6230, 22190, 6510, -450, 346, -111
540, 193, 907, 300, 7070, 25550, 7210, -451, 348, -121
541, 183, 900, 308, 7980, 28700, 7980, -454, 340, -105
542, 176, 899, 309, 8750, 31010, 8610, -453, 349, -117
543, 162, 903, 312, 9240, 32340, 9310, -447, 343, -114
544, 135, 909, 315, 9730, 33250, 10220, -453, 342, -112
545, 109, 933, 312, 9520, 32550, 10500, -445, 346, -114
546, 77, 991, 301, 8680, 29750, 10500, -450, 343, -108
547, 43, 1074, 289, 7000, 24220, 10150, -459, 343, -99
548, -14, 1128, 279, 4060, 14770, 9100, -456, 340, -105
549, 21, 1064, 240, -3360, -8190, 6020, -447, 346, -115
550, 90, 1020, 231, -6160, -17150, 4760, -453, 348, -105
551, 176, 1008, 223, -7840, -21770, 3780, -459, 346, -111
552, 258, 1002, 220, -9170, -24430, 3150, -444, 351, -112
553, 305, 991, 227, -10290, -22890, 2170, -447, 339, -103
554, 320, 980, 239, -10290, -20230, 1680, -450, 348, -115
555, 297, 972, 239, -9520, -16730, 1330, -454, 349, -114
556, 287, 925, 250, -8610, -13020, 770, -457, 345, -117
557, 264, 860, 252, -7210, -9170, 350, -456, 351, -120
558, 251, 805, 259, -3430, -1750, -350, -453, 342, -121
559, 248, 812, 252, -1050, 1540, -490, -453, 345, -120
560, 229, 821, 255, 1050, 3430, -700, -447, 346, -120
561, 219, 834, 259, 2590, 4340, -1050, -460, 337, -117
562, 210, 868, 254, 3430, 4270, -1470, -453, 345, -111
563, 211, 949, 246, 3290, 1960, -2730, -444, 339, -118
564, 210, 953, 252, 2590, -560, -3780, -459, 340, -114
565, 226, 931, 257, 1540, -3640, -4970, -457, 342, -117
566, 242, 909, 264, 840, -5600, -6370, -447, 346, -117
567, 264, 892, 267, 560, -6230, -8890, -450, 345, -111
568, 288, 879, 260, 770, -4970, -9870, -454, 345, -109
569, 287, 883, 261, 1190, -2730, -10710, -456, 349, -112
570, 296, 890, 259, 1750, -350, -11340, -454, 336, -111
571, 296, 910, 267, 2380, 2660, -11900, -447, 348, -112
572, 280, 925, 275, 3150, 6790, -13230, -447, 337, -121
573, 274, 928, 280, 3430, 7910, -14070, -450, 349, -112
574, 263, 931, 284, 3780, 8750, -14980, -442, 336, -108
575, 255, 928, 282, 4200, 9590, -15750, -450, 340, -115
576, 239, 928, 276, 4480, 10640, -16380, -454, 337, -115
577, 211, 923, 270, 4760, 12810, -17290, -439, 343, -103
578, 211, 922, 274, 4900, 13930, -17640, -439, 333, -108
579, 206, 919, 287, 5040, 14910, -18060, -444, 340, -100
580, 201, 911, 289, 5180, 15470, -18480, -435, 328, -111
581, 191, 910, 305, 5460, 16240, -19600, -439, 336, -105
582, 176, 912, 300, 5600, 16660, -20090, -435, 334, -115
583, 176, 918, 298, 5600, 17430, -20440, -424, 351, -100
584, 173, 926, 296, 5530, 18410, -20650, -430, 342, -103
585, 160, 932, 289, 5390, 19530, -20650, -430, 336, -105
586, 118, 964, 290, 4970, 21070, -20300, -426, 322, -105
587, 100, 985, 287, 4760, 21280, -20160, -423, 336, -99
588, 88, 998, 293, 4550, 21000, -19950, -429, 340, -105
589, 102, 986, 298, 4340, 20650, -19810, -430, 325, -105
590, 116, 962, 298, 4340, 20790, -19530, -429, 334, -100
591, 63, 894, 300, 5320, 22400, -18480, -427, 327, -106
592, 42, 886, 294, 5950, 23310, -17710, -421, 325, -105
593, 16, 899, 279, 6790, 24430, -17010, -418, 321, -99
594, -8, 948, 275, 7000, 23730, -16240, -415, 325, -102
595, -42, 1169, 254, 3990, 16450, -15540, -423, 339, -93
596, -36, 1236, 239, 840, 10080, -15610, -417, 330, -90
597, -34, 1262, 238, -3010, 2800, -15680, -417, 330, -99
598, -4, 1244, 240, -6720, -3570, -15750, -420, 325, -94
599, -10, 1186, 245, -9590, -7910, -15400, -417, 318, -106
600, 0, 947, 262, -11200, -8260, -13930, -417, 322, -108
601, 14, 845, 274, -9520, -4410, -12670, -421, 321, -109
602, -15, 798, 280, -6720, 910, -10990, -417, 324, -100
603, -13, 778, 291, -3430, 6300, -9170, -409, 328, -102
604, -49, 820, 293, -140, 10920, -7280, -412, 324, -97
605, -71, 919, 285, 3850, 14840, -3570, -415, 331, -102
606, -59, 946, 284, 4480, 15400, -1890, -412, 330, -97
607, -52, 983, 281, 4550, 15750, -280, -415, 324, -100
608, -29, 987, 279, 4200, 16450, 1330, -415, 330, -112
609, -56, 939, 293, 3500, 18970, 4690, -418, 319, -97
610, -74, 905, 297, 3080, 19740, 6160, -414, 333, -94
611, -62, 872, 304, 2940, 19880, 7560, -409, 322, -99
612, -44, 863, 315, 3080, 20160, 8890, -408, 325, -97
613, -32, 878, 327, 3220, 20440, 10150, -415, 328, -93
614, 0, 990, 343, 2730, 19390, 11970, -418, 322, -93
615, -6, 1031, 351, 1610, 17500, 12460, -417, 337, -91
616, -12, 1058, 350, 0, 13790, 12600, -417, 321, -96
617, -13, 1065, 357, -1750, 9520, 12670, -415, 324, -94
618, -27, 1045, 354, -2800, 5460, 12670, -423, 331, -94
619, -26, 1036, 344, -1610, -770, 12810, -408, 330, -91
620, 6, 1070, 325, 420, -2590, 13090, -418, 321, -91
621, 20, 1087, 293, 2590, -3500, 13440, -415, 328, -96
622, 55, 1039, 263, 4270, -3570, 14000, -414, 324, -88
623, 108, 979, 210, 4550, -1400, 15330, -412, 340, -81
624, 86, 967, 199, 3080, -910, 15960, -430, 325, -90
625, 66, 940, 198, 1120, -1330, 16450, -415, 334, -87
626, 27, 900, 202, -980, -2240, 16520, -421, 331, -97
627, 31, 875, 220, -2660, -2940, 16520, -423, 334, -81
628, 88, 907, 268, -4970, -3710, 16380, -423, 328, -85
629, 136, 952, 280, -5460, -3710, 16450, -421, 330, -88
630, 140, 975, 309, -5530, -2940, 16730, -426, 325, -88
631, 135, 981, 324, -5460, -1260, 17010, -427, 330, -88
632, 108, 991, 322, -5040, 560, 17220, -421, 330, -90
633, 109, 1074, 300, -3710, 280, 17570, -426, 342, -91
634, 100, 1077, 288, -2870, -1400, 17710, -435, 336, -91
635, 77, 1032, 286, -2380, -3360, 17500, -430, 339, -102
636, 90, 973, 268, -2240, -5460, 17290, -435, 342, -97
637, 108, 886, 212, -3500, -8050, 16660, -430, 339, -96
638, 119, 807, 204, -4900, -8680, 16170, -426, 337, -91
639, 131, 779, 206, -6300, -8120, 15610, -436, 345, -96
640, 154, 823, 220, -7420, -7280, 14980, -429, 336, -102
641, 187, 910, 234, -7560, -6020, 14420, -433, 342, -109
642, 213, 1018, 290, -5670, -3430, 14000, -433, 346, -94
643, 218, 1047, 293, -4480, -2100, 14140, -438, 351, -99
644, 198, 1058, 292, -3360, -630, 14210, -433, 345, -99
645, 180, 1076, 274, -2870, 1540, 14350, -435, 349, -108
646, 153, 1073, 245, -2870, 4340, 14840, -427, 349, -103
647, 116, 864, 235, -4690, 9100, 15260, -442, 343, -100
648, 118, 788, 246, -5250, 9870, 15890, -436, 351, -102
649, 127, 774, 283, -4900, 9240, 16590, -445, 354, -91
650, 146, 814, 305, -2940, 7490, 17150, -441, 349, -100
651, 116, 867, 323, 2310, 1960, 17010, -444, 354, -94
652, 114, 877, 326, 3500, -2310, 15960, -451, 358, -94
653, 121, 957, 292, 3220, -7070, 14350, -451, 349, -105
654, 175, 1006, 271, 1680, -11060, 12670, -444, 361, -100
655, 184, 982, 268, -70, -13230, 10990, -445, 357, -96
656, 178, 871, 286, -2660, -15610, 8400, -453, 354, -93
657, 179, 859, 291, -3080, -17500, 7490, -451, 360, -88
658, 144, 852, 295, -2660, -19460, 6860, -448, 352, -96
659, 120, 798, 308, -2030, -21140, 6370, -451, 355, -99
660, 107, 765, 299, -630, -22750, 5390, -451, 354, -105
661, 152, 868, 300, -420, -23800, 4970, -465, 354, -102
662, 170, 948, 307, -490, -26040, 4620, -447, 355, -97
663, 208, 1007, 319, -630, -27860, 4060, -457, 354, -99
664, 217, 999, 328, -630, -27510, 3570, -459, 352, -100
665, 197, 896, 294, -70, -24010, 2450, -448, 348, -96
666, 184, 864, 280, 0, -22330, 1890, -463, 358, -106
667, 203, 843, 281, -560, -21840, 1400, -457, 361, -103
668, 207, 850, 285, -1400, -21350, 770, -454, 361, -102
669, 236, 858, 303, -2310, -20720, 140, -460, 357, -99
670, 379, 1115, 308, 630, -14420, -910, -457, 348, -97
671, 473, 1352, 303, 4480, -8540, -770, -460, 351, -99
672, 435, 1426, 298, 7350, -3010, -210, -457, 348, -103
673, 375, 1294, 255, 8610, 1890, 140, -454, 357, -106
674, 284, 1129, 195, 4970, 8960, 350, -457, 354, -97
675, 187, 854, 145, 2590, 10990, 350, -460, 355, -99
676, 167, 750, 162, 1400, 10780, 420, -462, 349, -96
677, 131, 725, 180, 1260, 7910, 280, -450, 346, -91
678, 131, 730, 212, 2310, 3360, 0, -451, 354, -99
679, 127, 827, 229, 5250, -5670, -840, -451, 351, -91
680, 129, 858, 222, 6440, -8190, -1470, -456, 349, -91
681, 140, 840, 228, 6930, -8680, -2240, -457, 342, -94
682, 145, 825, 223, 6230, -8120, -3150, -448, 348, -94
683, 184, 825, 209, 5040, -7350, -3990, -451, 357, -93
684, 235, 947, 228, 2240, -7350, -5320, -448, 346, -94
685, 213, 986, 241, 560, -8750, -5810, -456, 360, -97
686, 203, 1028, 262, -1330, -11200, -6440, -460, 337, -100
687, 239, 1189, 271, -3010, -13160, -7000, -456, 352, -103
688, 277, 1287, 275, -4270, -12040, -7350, -457, 351, -96
689, 204, 1041, 255, -4200, -9800, -7280, -451, 343, -100
690, 156, 887, 225, -3990, -7350, -7140, -448, 342, -99
691, 157, 796, 206, -3640, -5110, -6860, -453, 348, -90
692, 182, 844, 183, -1960, -3710, -6580, -451, 346, -97
693, 201, 1126, 218, 5320, -3640, -6020, -451, 346, -105
694, 219, 1134, 205, 9170, -3290, -5600, -450, 346, -96
695, 217, 1047, 169, 11760, -700, -4970, -456, 340, -96
696, 236, 962, 142, 12110, 2660, -4340, -451, 351, -96
697, 224, 956, 111, 10080, 6090, -3780, -454, 343, -93
698, 253, 1092, 75, 2590, 8750, -3500, -447, 349, -105
699, 238, 1089, 94, -1750, 8120, -3850, -450, 346, -99
700, 237, 1030, 113, -6090, 7140, -4760, -450, 340, -102
701, 255, 965, 131, -10150, 7070, -5600, -454, 342, -96
702, 248, 909, 154, -15890, 8120, -7140, -447, 343, -108
703, 246, 795, 217, -16800, 9310, -7630, -453, 345, -99
704, 229, 698, 326, -16170, 10080, -8190, -444, 346, -103
705, 230, 704, 424, -13440, 11060, -9030, -447, 346, -102
706, 244, 813, 458, -8050, 11900, -9660, -444, 342, -105
707, 196, 837, 392, 5320, 11900, -10290, -439, 340, -97
708, 122, 758, 323, 10220, 14280, -10360, -444, 330, -100
709, 83, 766, 239, 12110, 17290, -9940, -436, 345, -109
710, 74, 878, 177, 12110, 21210, -8960, -439, 336, -103
711, 99, 979, 145, 10920, 23450, -7350, -436, 337, -90
712, 132, 909, 198, 7210, 24150, -4480, -445, 345, -97
713, 140, 941, 227, 4480, 22190, -4200, -444, 349, -97
714, 157, 1027, 281, 1680, 18410, -4830, -442, 340, -90
715, 162, 1123, 318, 280, 13300, -6230, -444, 348, -91
716, 189, 1178, 306, 4480, 2170, -9170, -438, 331, -99
717, 144, 1102, 270, 8120, -1470, -9730, -447, 337, -97
718, 82, 914, 227, 10570, -3080, -9800, -427, 342, -97
719, 69, 760, 182, 11060, -3850, -9660, -441, 333, -97
720, 84, 776, 137, 10220, -3360, -9450, -439, 339, -99
721, 187, 1120, 106, 5250, -2100, -8680, -444, 340, -84
722, 204, 1196, 126, 1400, -1470, -8540, -436, 340, -88
723, 202, 1210, 148, -3430, -1050, -8820, -427, 337, -88
724, 207, 1200, 170, -8540, -1050, -9310, -436, 340, -100
725, 205, 1187, 183, -12320, -910, -9730, -429, 336, -103
726, 154, 973, 256, -12950, 980, -9310, -435, 339, -96
727, 112, 806, 309, -10010, 2380, -8610, -444, 336, -94
728, 73, 713, 312, -5600, 4410, -7700, -432, 339, -99
729, 41, 677, 276, -140, 6510, -6370, -436, 334, -91
730, -40, 583, 206, 9170, 11900, -3500, -432, 334, -94
731, -28, 659, 204, 11690, 15890, -2520, -435, 340, -94
732, 42, 913, 206, 12390, 18690, -1610, -433, 336, -94
733, 132, 1212, 191, 11830, 20510, -770, -436, 349, -94
734, 171, 1333, 216, 9940, 19880, 70, -432, 340, -87
735, 123, 1146, 261, 4620, 16240, 1050, -423, 342, -93
736, 96, 1025, 241, 2660, 14840, 1400, -435, 333, -96
737, 53, 930, 203, 2030, 13930, 2170, -435, 333, -90
738, 2, 882, 183, 2100, 13160, 2870, -430, 345, -87
739, -29, 923, 179, 1470, 10990, 3430, -432, 337, -87
740, 77, 1252, 198, -3500, 4060, 3780, -426, 333, -91
741, 137, 1388, 217, -6580, 350, 3850, -432, 346, -100
742, 173, 1374, 245, -9170, -2450, 4130, -436, 337, -100
743, 154, 1221, 265, -10290, -3850, 4550, -435, 348, -94
744, 59, 828, 232, -8750, -2940, 6090, -436, 342, -103
745, 3, 693, 226, -6580, -1680, 7140, -433, 340, -99
746, -30, 641, 225, -3990, -420, 8120, -435, 345, -94
747, -18, 680, 233, -1400, 350, 9030, -433, 349, -102
748, -14, 784, 244, 840, 840, 9870, -436, 340, -105
749, 53, 976, 236, 3360, 1120, 11970, -444, 349, -94
750, 81, 1020, 238, 3010, 840, 13020, -441, 342, -87
751, 96, 1080, 240, 1470, 280, 13930, -432, 348, -97
752, 79, 1146, 236, -770, -980, 14490, -442, 357, -90
753, 42, 1157, 250, -3290, -3710, 14560, -433, 340, -112
754, 101, 1021, 276, -5040, -9590, 14070, -450, 349, -90
755, 121, 898, 269, -3360, -10080, 14420, -442, 348, -96
756, 97, 764, 276, -980, -9660, 15260, -453, 355, -94
757, 90, 680, 264, 1330, -8260, 16170, -445, 355, -88
758, 87, 672, 257, 4550, -2590, 18340, -450, 354, -96
759, 97, 739, 260, 4760, -700, 19250, -445, 349, -88
760, 112, 897, 255, 4200, -420, 19740, -451, 357, -84
761, 146, 1090, 275, 2030, -3430, 19810, -450, 352, -88
762, 153, 1190, 295, -840, -6440, 19180, -451, 348, -93
763, 194, 1130, 311, -5530, -11060, 16940, -456, 352, -85
764, 207, 1057, 304, -6090, -12250, 16240, -447, 369, -94
765, 186, 867, 294, -5670, -12670, 15960, -451, 360, -94
766, 140, 660, 279, -4620, -13160, 16170, -457, 360, -96
767, 104, 530, 268, -3150, -12670, 16450, -459, 355, -93
768, 118, 690, 259, 630, -9940, 17150, -450, 361, -90
769, 177, 878, 281, 2240, -7840, 17570, -450, 357, -91
770, 266, 1067, 322, 3010, -5740, 17710, -463, 361, -93
771, 328, 1207, 345, 2590, -3570, 17850, -456, 355, -94
772, 366, 1205, 294, -910, -1330, 17780, -471, 358, -84
773, 319, 1127, 261, -3150, -1400, 17360, -459, 355, -75
774, 298, 1007, 256, -5740, -2170, 16380, -462, 358, -87
775, 260, 909, 248, -7980, -2660, 15120, -460, 358, -91
776, 265, 826, 250, -10150, -3640, 13790, -466, 357, -93
777, 235, 778, 282, -11970, -5670, 11480, -457, 358, -87
778, 226, 791, 363, -10850, -6580, 10570, -463, 360, -87
779, 295, 932, 386, -7070, -6930, 9940, -466, 354, -94
780, 277, 1057, 337, -1260, -5810, 10010, -469, 355, -85
781, 237, 980, 309, 4970, -3850, 11130, -463, 355, -88
782, 124, 623, 194, 11760, 840, 11550, -460, 363, -90
783, 129, 629, 137, 10990, 1890, 11830, -466, 351, -82
784, 198, 804, 139, 9100, 1540, 11970, -457, 358, -96
785, 268, 1063, 146, 6160, -140, 11830, -468, 348, -84
786, 382, 1305, 194, -1750, -3500, 10290, -460, 355, -85
787, 440, 1392, 223, -6720, -3920, 9170, -468, 352, -82
788, 468, 1455, 228, -11200, -3710, 8330, -477, 351, -84
789, 409, 1369, 199, -14630, -3640, 7700, -462, 361, -93
790, 293, 1217, 200, -17010, -4620, 7000, -478, 355, -96
791, 200, 932, 255, -17990, -7070, 5460, -471, 346, -96
792, 222, 872, 272, -15190, -6510, 5110, -471, 349, -99
793, 214, 821, 243, -10430, -4830, 5740, -465, 355, -96
794, 209, 702, 213, -5040, -2030, 6930, -472, 351, -91
795, 153, 578, 185, -490, 3990, 9170, -471, 357, -99
796, 181, 668, 146, 2310, 5460, 9590, -468, 351, -105
797, 271, 891, 156, 1820, 5180, 9450, -463, 358, -105
798, 292, 1078, 168, 1260, 3990, 8820, -472, 354, -96
799, 309, 1073, 214, 280, 1960, 7980, -468, 357, -96
800, 258, 847, 228, -840, -1330, 6020, -471, 358, -97
801, 237, 815, 179, -70, -3010, 5390, -466, 360, -96
802, 224, 735, 179, 1330, -4970, 5390, -469, 357, -93
803, 183, 612, 189, 2940, -6230, 5180, -468, 354, -97
804, 188, 523, 196, 4200, -6440, 4970, -475, 355, -90
805, 293, 693, 182, 7490, -3500, 4480, -469, 363, -93
806, 323, 825, 201, 9170, -980, 4270, -474, 364, -85
807, 383, 946, 222, 10010, 1890, 4060, -469, 358, -88
808, 428, 1146, 217, 9730, 4200, 3640, -463, 361, -97
809, 487, 1330, 227, 5530, 7560, 2590, -477, 355, -93
810, 452, 1374, 226, 2520, 7840, 1820, -468, 361, -93
811, 350, 1222, 206, -420, 6370, 910, -472, 354, -90
812, 271, 1033, 198, -3010, 3150, -140, -471, 357, -93
813, 189, 871, 174, -4690, -840, -1190, -472, 363, -84
814, 146, 711, 147, -5250, -7980, -3010, -471, 352, -96
815, 178, 742, 171, -5110, -10780, -3710, -471, 357, -93
816, 200, 840, 181, -5040, -13230, -4270, -471, 352, -102
817, 239, 938, 195, -5390, -16030, -4830, -465, 355, -94
818, 247, 1007, 216, -5530, -18550, -5320, -466, 358, -97
819, 300, 1073, 220, -3990, -19810, -5880, -481, 355, -93
820, 331, 1054, 208, -2660, -17500, -5810, -472, 357, -97
821, 340, 998, 203, -1400, -14070, -5670, -468, 354, -102
822, 360, 968, 183, -490, -10010, -5530, -472, 361, -96
823, 371, 986, 165, -420, -3080, -5320, -480, 355, -102
824, 382, 1058, 163, -1190, -350, -5460, -481, 351, -102
825, 381, 1060, 172, -1960, 2170, -5810, -472, 354, -103
826, 346, 1028, 188, -2870, 3780, -6230, -471, 346, -103
827, 324, 953, 202, -3360, 4130, -6860, -478, 351, -105
828, 250, 764, 227, -2870, 2310, -8190, -480, 354, -105
829, 221, 723, 222, -1890, 630, -8820, -474, 346, -90
830, 240, 724, 214, -490, -700, -9240, -475, 363, -102
831, 237, 762, 208, 1050, -910, -9590, -469, 349, -102
832, 262, 797, 210, 2240, -630, -9870, -471, 343, -103
833, 276, 902, 206, 3570, 1260, -10430, -466, 360, -97
834, 284, 938, 207, 3570, 2100, -10780, -474, 358, -97
835, 300, 956, 220, 3360, 3080, -11060, -468, 354, -109
836, 306, 946, 228, 3290, 4620, -11200, -468, 352, -102
837, 306, 911, 214, 3990, 7840, -11200, -468, 354, -106
838, 261, 859, 213, 4900, 9030, -11200, -471, 354, -99
839, 241, 912, 199, 5810, 9870, -11200, -457, 351, -111
840, 231, 1004, 199, 6230, 9800, -11410, -466, 363, -94
841, 238, 1083, 194, 5600, 9030, -11690, -466, 349, -105
842, 250, 1055, 205, 1680, 6090, -12530, -460, 351, -94
843, 245, 980, 203, -210, 4690, -12950, -471, 357, -94
844, 230, 890, 217, -1400, 3220, -13300, -468, 346, -114
845, 227, 806, 228, -1330, 2590, -13510, -463, 358, -100
846, 225, 755, 233, 280, 3010, -13650, -459, 354, -102
847, 239, 824, 214, 7070, 6510, -13370, -463, 361, -97
848, 249, 928, 193, 10920, 8540, -13090, -465, 346, -106
849, 244, 1077, 163, 13510, 10010, -12950, -468, 348, -108
850, 250, 1203, 139, 13790, 9940, -12880, -465, 348, -97
851, 237, 1310, 87, 7280, 5880, -13510, -460, 351, -97
852, 234, 1336, 78, 2310, 3150, -13930, -454, 355, -97
853, 243, 1224, 77, -2170, 1050, -14210, -456, 343, -114
854, 219, 1080, 93, -5110, 630, -14350, -453, 352, -97
855, 209, 918, 114, -6580, 980, -14280, -447, 357, -100
856, 175, 767, 150, -4760, 4270, -13860, -465, 352, -105
857, 175, 803, 162, -2170, 6090, -13580, -453, 349, -102
858, 170, 874, 153, 420, 7770, -13300, -456, 361, -96
859, 170, 932, 149, 2310, 8050, -13300, -454, 355, -102
860, 160, 982, 137, 2870, 7420, -13230, -456, 354, -96
861, 159, 1057, 120, 1330, 5250, -13020, -441, 351, -94
862, 151, 1032, 124, 140, 4270, -12670, -456, 361, -112
863, 137, 971, 127, -910, 3010, -12250, -451, 349, -96
864, 112, 908, 157, -1470, 1820, -11970, -447, 342, -102
865, 111, 882, 168, -980, 0, -11480, -447, 349, -99
866, 111, 875, 162, -140, -560, -11270, -445, 351, -90
867, 106, 852, 181, 770, -560, -10990, -445, 355, -93
868, 113, 872, 179, 1610, 70, -10640, -448, 352, -94
869, 134, 928, 178, 1890, 910, -10220, -450, 346, -97
870, 153, 990, 191, 1750, 3640, -8680, -450, 351, -102
871, 142, 973, 205, 1470, 5250, -7980, -442, 355, -109
872, 147, 962, 208, 770, 6090, -7350, -447, 361, -99
873, 187, 961, 218, 280, 6790, -7070, -456, 351, -91
874, 167, 960, 235, 210, 7560, -6650, -454, 358, -85
875, 176, 902, 246, 2660, 12040, -6230, -450, 348, -97
876, 207, 848, 249, 4550, 14910, -6090, -439, 352, -96
877, 168, 862, 254, 6090, 16940, -5810, -436, 354, -103
878, 198, 906, 249, 7490, 18620, -5530, -450, 352, -94
879, 173, 988, 236, 7770, 17920, -5320, -447, 355, -90
880, 131, 1048, 240, 6720, 16870, -5390, -441, 357, -90
881, 152, 1084, 236, 5320, 15680, -5740, -441, 357, -79
882, 120, 1104, 214, 3570, 13440, -6020, -442, 346, -88
883, 136, 1073, 208, 1890, 10850, -6300, -442, 342, -91
884, 144, 1045, 210, -1470, 4830, -6930, -438, 354, -91
885, 139, 1040, 215, -2660, 3640, -7140, -439, 346, -84
886, 172, 1021, 210, -3080, 4130, -7280, -448, 352, -78
887, 157, 999, 204, -3220, 5040, -7350, -444, 349, -85
888, 150, 976, 201, -3150, 5320, -7490, -432, 354, -87
889, 130, 980, 206, -3360, 3570, -7700, -429, 355, -93
890, 105, 974, 205, -3780, 1890, -7840, -429, 348, -87
891, 116, 955, 192, -4130, 210, -8120, -436, 346, -94
892, 95, 935, 202, -4340, -1050, -8190, -427, 352, -85
893, 93, 932, 215, -4550, -1540, -8260, -433, 342, -82
894, 113, 922, 220, -4270, -1260, -8120, -427, 342, -87
895, 105, 913, 231, -3780, -560, -7700, -439, 339, -84
896, 120, 893, 246, -3080, 980, -7350, -435, 343, -93
897, 115, 890, 237, -2170, 2520, -6790, -421, 342, -102
898, 105, 885, 239, -280, 5040, -5670, -442, 339, -88
899, 101, 887, 249, 700, 5740, -5180, -424, 343, -96
900, 83, 897, 252, 1330, 5810, -4830, -439, 343, -78
901, 102, 920, 249, 2030, 5530, -4620, -433, 348, -93
902, 87, 963, 253, 2730, 5530, -4550, -433, 342, -88
903, 94, 1042, 226, 3080, 4130, -4970, -420, 340, -90
904, 119, 1072, 217, 2660, 3010, -5180, -429, 342, -82
905, 107, 1102, 187, 2030, 1680, -5180, -430, 351, -93
906, 117, 1108, 178, 1190, 560, -4970, -429, 337, -87
907, 93, 1109, 155, -840, -840, -4130, -433, 342, -91
908, 65, 1115, 156, -1820, -700, -3570, -423, 339, -102
909, 76, 1074, 155, -2590, -490, -3010, -423, 336, -78
910, 65, 1017, 160, -3220, -70, -2450, -426, 337, -87
911, 86, 964, 177, -3710, 70, -1960, -427, 348, -87
912, 106, 952, 201, -3850, -350, -1330, -424, 336, -88
913, 118, 968, 219, -3710, -1120, -1610, -429, 339, -81
914, 144, 977, 236, -4060, -2310, -2100, -430, 333, -84
915, 162, 979, 251, -4620, -3570, -2940, -438, 331, -88
916, 199, 974, 250, -5250, -4340, -4760, -427, 336, -87
917, 219, 928, 269, -5880, -2520, -5390, -424, 333, -111
918, 212, 897, 283, -5810, -630, -5880, -418, 327, -100
919, 200, 875, 299, -5460, 1610, -6300, -432, 330, -97
920, 176, 872, 304, -4900, 3780, -6580, -418, 333, -103
921, 126, 863, 334, -3360, 6300, -7490, -424, 336, -94
922, 112, 852, 338, -2590, 6370, -8050, -420, 330, -100
923, 100, 849, 355, -1890, 5600, -8750, -432, 337, -102
924, 96, 841, 360, -1400, 4620, -9310, -418, 337, -102
925, 91, 846, 359, -770, 3360, -9730, -423, 333, -94
926, 75, 793, 372, 350, 1190, -10430, -420, 328, -93
927, 77, 766, 381, 1120, 910, -10500, -420, 327, -91
928, 78, 754, 365, 2170, 1470, -10570, -423, 334, -97
929, 79, 746, 363, 3570, 3010, -10500, -423, 333, -99
930, 69, 731, 369, 5460, 7560, -9940, -418, 322, -87
931, 62, 741, 369, 10220, 9660, -9520, -432, 330, -94
932, 61, 778, 356, 13090, 11270, -9030, -420, 331, -96
933, 47, 802, 350, 15610, 12110, -8400, -426, 327, -82
934, 34, 809, 332, 17710, 12880, -7840, -411, 337, -82
935, 11, 840, 303, 20090, 13230, -6580, -417, 318, -81
936, 12, 883, 305, 20370, 13090, -5950, -412, 336, -81
937, 46, 1025, 308, 20160, 12670, -5390, -415, 334, -76
938, 75, 1274, 311, 19040, 11480, -5040, -420, 325, -90
939, 86, 1455, 294, 16520, 9170, -5110, -415, 322, -75
940, 99, 1526, 244, 8190, 840, -6020, -417, 333, -79
941, 116, 1453, 238, 3640, -2660, -6160, -411, 331, -69
942, 105, 1265, 223, 420, -4270, -6090, -417, 330, -85
943, 74, 1052, 236, -1890, -4830, -5390, -412, 333, -82
944, 48, 897, 234, -3640, -4830, -3640, -412, 331, -88
945, -25, 847, 244, -3500, -4690, -2660, -412, 331, -81
946, -70, 868, 248, -3430, -5110, -1820, -418, 328, -79
947, -63, 881, 253, -3150, -4900, -1190, -418, 331, -85
948, -50, 941, 257, -3360, -4410, -490, -411, 327, -82
949, 74, 1158, 220, -2940, 1260, 1540, -414, 333, -75
950, 117, 1166, 216, -2800, 5250, 3010, -424, 328, -87
951, 88, 1111, 210, -3010, 8750, 4620, -417, 331, -87
952, 67, 1061, 211, -3500, 11480, 6090, -406, 331, -85
953, 10, 1007, 210, -3920, 13160, 7630, -420, 321, -87
954, -84, 798, 222, -3290, 14840, 10500, -411, 328, -79
955, -86, 714, 240, -2520, 15190, 11830, -414, 324, -78
956, -92, 699, 254, -1680, 15750, 13440, -411, 330, -78
957, -74, 715, 283, -700, 16310, 15050, -420, 334, -82
958, -67, 749, 306, 2450, 17360, 18550, -414, 334, -76
959, -47, 863, 364, 4480, 18410, 20160, -423, 340, -78
960, -22, 928, 355, 6650, 19180, 21840, -415, 327, -78
961, -20, 953, 327, 8680, 20020, 23520, -418, 340, -75
962, -13, 931, 290, 10150, 20790, 25340, -424, 327, -85
963, -15, 1016, 243, 10220, 21140, 28700, -423, 348, -70
964, 27, 1208, 219, 9030, 20650, 30170, -421, 346, -73
965, 60, 1383, 212, 7210, 19530, 31500, -418, 336, -66
966, 83, 1416, 192, 4620, 17710, 32620, -421, 340, -67
967, 130, 1401, 202, 2030, 16800, 33670, -427, 346, -60
968, 162, 1215, 211, -2100, 19180, 35630, -426, 337, -64
969, 123, 980, 215, -2660, 21350, 36750, -438, 343, -58
970, 110, 779, 217, -2450, 21980, 37660, -424, 342, -66
971, 103, 736, 202, -1960, 19950, 38220, -438, 345, -72
972, 123, 798, 208, -2870, 9310, 37450, -432, 339, -54
973, 141, 992, 235, -4620, 2170, 36120, -442, 349, -55
974, 151, 1030, 254, -6930, -4270, 34510, -436, 346, -69
975, 183, 1007, 274, -8470, -8120, 32900, -442, 340, -60
976, 186, 926, 303, -8680, -9450, 31500, -448, 354, -57
977, 194, 703, 314, -6440, -8610, 29470, -444, 348, -61
978, 194, 629, 305, -5040, -8680, 28490, -454, 346, -60
979, 191, 585, 297, -3920, -9380, 27300, -444, 348, -60
980, 206, 569, 277, -2940, -10850, 25900, -460, 349, -72
981, 219, 563, 267, -2030, -12320, 24220, -442, 355, -57
982, 271, 647, 261, -980, -15400, 20230, -456, 351, -60
983, 302, 784, 268, -1190, -17010, 17990, -447, 351, -64
984, 345, 920, 283, -1820, -18270, 15750, -457, 349, -61
985, 369, 1061, 290, -2310, -19530, 13370, -453, 355, -67
986, 431, 1317, 262, -3850, -22190, 9030, -463, 357, -69
987, 478, 1469, 224, -5530, -23240, 7280, -457, 358, -69
988, 417, 1256, 200, -7350, -24360, 5880, -456, 361, -70
989, 401, 1138, 160, -9800, -26180, 4690, -460, 361, -78
990, 353, 1028, 159, -11410, -26390, 3710, -462, 366, -73
991, 277, 693, 236, -10850, -20790, 1680, -457, 363, -70
992, 276, 582, 278, -8400, -14350, 630, -457, 355, -78
993, 289, 564, 294, -4830, -7140, -140, -465, 360, -78
994, 309, 591, 309, -560, -560, -280, -462, 361, -76
995, 324, 653, 311, 3430, 4270, -140, -462, 373, -87
996, 286, 848, 304, 7280, 8260, -350, -468, 361, -73
997, 283, 983, 293, 7280, 8750, -840, -454, 367, -72
998, 276, 1136, 278, 6440, 8820, -1470, -469, 355, -82
999, 287, 1238, 283, 4760, 7840, -2100, -462, 358, -75
1000, 240, 1168, 275, -350, 3850, -2660, -460, 366, -78
1001, 193, 1047, 276, -2730, 1960, -2450, -456, 361, -73
1002, 141, 930, 274, -3920, 490, -2030, -463, 373, -79
1003, 120, 841, 269, -3360, -210, -1330, -451, 373, -73
1004, 118, 831, 254, -1120, -140, -560, -460, 373, -78
1005, 157, 999, 210, 4270, 2800, 700, -465, 364, -78
1006, 195, 1118, 166, 5250, 2170, 980, -462, 361, -78
1007, 228, 1251, 121, 4970, 700, 980, -463, 366, -79
1008, 240, 1243, 125, 3570, -350, 1190, -463, 370, -76
1009, 237, 1137, 129, 2030, 490, 1540, -457, 372, -72
1010, 236, 1044, 119, 280, 6370, 3290, -463, 366, -75
1011, 204, 974, 107, -560, 9030, 4550, -463, 366, -72
1012, 166, 901, 113, -1750, 10080, 5600, -460, 373, -69
1013, 124, 876, 151, -3150, 9310, 6370, -460, 367, -66
1014, 108, 871, 198, -4620, 4830, 7070, -463, 372, -63
1015, 89, 801, 217, -3920, 2100, 7210, -466, 378, -69
1016, 78, 709, 238, -2450, -280, 7490, -457, 361, -64
1017, 99, 671, 230, -630, -1400, 7630, -462, 378, -64
1018, 134, 752, 197, 840, -1680, 7980, -469, 366, -63
1019, 291, 1128, 133, 560, 1190, 8680, -462, 372, -61
1020, 340, 1237, 144, -1820, 3290, 9240, -463, 361, -66
1021, 334, 1290, 154, -5390, 4480, 9870, -469, 366, -67
1022, 321, 1240, 181, -8680, 4830, 10640, -466, 370, -60
1023, 259, 1085, 224, -10290, 4900, 11410, -463, 361, -66
1024, 172, 777, 248, -5880, 5180, 12600, -465, 370, -64
1025, 145, 672, 231, -770, 5180, 13020, -459, 364, -69
1026, 146, 612, 199, 4690, 4620, 13020, -469, 364, -67
1027, 166, 589, 169, 9100, 3780, 12810, -469, 360, -58
1028, 221, 745, 141, 12460, 910, 12110, -466, 367, -63
1029, 261, 948, 139, 11690, -840, 11830, -469, 364, -70
1030, 339, 1173, 136, 9380, -2240, 11550, -477, 363, -64
1031, 379, 1324, 151, 5950, -2030, 11480, -474, 370, -61
1032, 377, 1383, 149, 1890, -840, 11480, -466, 372, -63
1033, 280, 1259, 150, -6440, 350, 11690, -475, 372, -67
1034, 230, 1124, 168, -10150, -2240, 11690, -468, 357, -64
1035, 155, 938, 186, -12670, -4970, 11620, -475, 364, -63
1036, 144, 771, 203, -13930, -7140, 11060, -475, 357, -61
1037, 136, 667, 223, -14140, -8890, 10360, -471, 361, -63
1038, 217, 630, 265, -10850, -11410, 8470, -469, 361, -60
1039, 276, 681, 271, -7350, -13510, 7350, -474, 361, -69
1040, 282, 767, 252, -3080, -16590, 6160, -472, 367, -75
1041, 296, 809, 246, 910, -20860, 4690, -480, 360, -64
1042, 270, 849, 197, 5880, -29750, 1120, -477, 361, -69
1043, 249, 872, 194, 5670, -33530, -770, -484, 370, -67
1044, 275, 910, 196, 3850, -36680, -2240, -474, 361, -70
1045, 307, 975, 205, 1400, -37730, -3220, -472, 361, -76
1046, 343, 987, 219, -770, -36470, -3570, -481, 367, -73
1047, 317, 901, 237, -3080, -31430, -3360, -486, 364, -72
1048, 325, 907, 252, -2870, -28630, -3080, -465, 363, -72
1049, 317, 975, 251, -2380, -26110, -2870, -490, 372, -63
1050, 354, 1050, 252, -1750, -23450, -2730, -472, 361, -79
1051, 337, 1080, 249, -1470, -20860, -2870, -480, 366, -81
1052, 336, 1003, 228, -2030, -15960, -3500, -475, 355, -84
1053, 366, 980, 221, -2870, -14560, -3710, -477, 361, -76
1054, 318, 936, 221, -3780, -12810, -3850, -475, 367, -81
1055, 311, 811, 233, -4620, -10640, -4200, -484, 357, -70
1056, 289, 715, 242, -5530, -5460, -4550, -483, 361, -76
1057, 318, 818, 251, -5460, -2240, -4480, -481, 366, -73
1058, 374, 935, 265, -5390, 1680, -3990, -475, 355, -78
1059, 366, 1001, 303, -6020, 5320, -3500, -477, 366, -76
1060, 364, 1015, 330, -7000, 9100, -3080, -484, 360, -82
1061, 314, 1115, 319, -8960, 13580, -2450, -478, 363, -90
1062, 276, 1072, 338, -9590, 14910, -2170, -474, 355, -93
1063, 259, 920, 388, -9590, 16100, -1960, -468, 360, -82
1064, 281, 877, 391, -7840, 17640, -1680, -475, 355, -82
1065, 347, 952, 353, -4130, 22120, -210, -475, 363, -79
1066, 351, 940, 322, 5530, 23380, 770, -469, 355, -79
1067, 254, 912, 275, 8190, 22260, 1120, -466, 363, -81
1068, 222, 1060, 166, 7980, 18760, 1050, -480, 369, -79
1069, 226, 1230, 96, 5530, 14630, 840, -484, 366, -78
1070, 208, 1195, 120, -2870, 4970, 0, -469, 361, -84
1071, 209, 1085, 134, -6650, 420, -210, -477, 357, -76
1072, 212, 978, 138, -8820, -3220, -140, -468, 360, -79
1073, 200, 866, 152, -9520, -6510, 0, -472, 357, -79
1074, 171, 730, 178, -9450, -9590, -280, -468, 358, -81
1075, 172, 612, 197, -8260, -14770, -2520, -478, 358, -82
1076, 225, 712, 198, -6790, -15820, -3710, -466, 358, -85
1077, 273, 801, 195, -5040, -15960, -4760, -474, 361, -84
1078, 295, 827, 209, -3710, -16100, -5460, -471, 364, -84
1079, 297, 848, 222, -4480, -17780, -6860, -472, 354, -93
1080, 317, 990, 228, -5600, -17990, -7350, -472, 351, -96
1081, 311, 965, 237, -6160, -16870, -7700, -484, 361, -90
1082, 272, 877, 257, -6440, -15050, -8050, -472, 364, -93
1083, 276, 778, 264, -6720, -13230, -8610, -468, 357, -93
1084, 279, 762, 282, -6440, -10780, -9450, -474, 355, -97
1085, 283, 780, 305, -4970, -9660, -9660, -478, 355, -96
1086, 283, 779, 329, -2590, -7840, -9800, -472, 364, -103
1087, 286, 795, 339, 210, -5740, -10010, -463, 355, -90
1088, 303, 830, 354, 3360, -3500, -10150, -475, 352, -106
1089, 334, 949, 295, 8890, 70, -10010, -468, 351, -102
1090, 301, 940, 274, 10080, 1260, -10080, -472, 355, -94
1091, 318, 966, 263, 9660, 2170, -10150, -472, 364, -94
1092, 329, 1078, 232, 8470, 4200, -10360, -475, 360, -96
1093, 356, 1170, 197, 4480, 9170, -9940, -471, 358, -91
1094, 329, 1178, 204, 1890, 10990, -9730, -483, 355, -96
1095, 308, 1131, 230, -420, 13160, -9520, -472, 348, -99
1096, 291, 1071, 247, -1960, 15680, -9170, -457, 354, -93
1097, 254, 987, 254, -2310, 18550, -8540, -474, 355, -100
1098, 183, 792, 272, 350, 21350, -7000, -463, 357, -97
1099, 176, 806, 290, 2590, 21280, -6160, -460, 345, -90
1100, 181, 921, 274, 4900, 20300, -5460, -459, 360, -100
1101, 177, 1039, 253, 6510, 18340, -4830, -465, 355, -93
1102, 164, 1067, 206, 6790, 15890, -4410, -471, 358, -96
1103, 161, 1030, 194, 2310, 9030, -4130, -468, 357, -85
1104, 169, 1039, 181, -1190, 5180, -3850, -459, 364, -93
1105, 153, 1014, 186, -3920, 2240, -3290, -468, 352, -102
1106, 135, 917, 210, -5740, -350, -2800, -465, 361, -91
1107, 95, 801, 243, -7210, -3780, -2310, -457, 355, -90
1108, 109, 767, 279, -7070, -4410, -2240, -453, 355, -93
1109, 138, 803, 297, -6230, -4270, -1890, -457, 355, -93
1110, 147, 818, 310, -4830, -3360, -1330, -472, 355, -94
1111, 167, 805, 330, -3430, -2660, -630, -472, 357, -99
1112, 206, 904, 344, 140, -1120, 840, -462, 361, -102
1113, 220, 983, 334, 3010, -280, 1610, -468, 354, -102
1114, 193, 1022, 321, 6020, 0, 2240, -460, 355, -106
1115, 173, 1027, 285, 8050, -1260, 2520, -457, 360, -103
1116, 147, 1020, 251, 8330, -3710, 2380, -457, 349, -97
1117, 224, 1155, 169, 3850, -8260, 2170, -456, 358, -102
1118, 258, 1235, 179, 70, -8820, 2450, -457, 360, -96
1119, 299, 1185, 191, -3570, -7630, 2870, -463, 354, -100
1120, 288, 1017, 212, -6300, -4480, 3640, -463, 358, -93
1121, 249, 832, 237, -6580, 2520, 4970, -463, 357, -105
1122, 163, 724, 259, -4410, 4060, 5600, -471, 366, -103
1123, 120, 739, 291, -1960, 3780, 5950, -462, 358, -91
1124, 133, 830, 311, 140, 1610, 6230, -462, 352, -97
1125, 159, 964, 297, 1050, -1890, 6510, -456, 355, -97
1126, 227, 1016, 257, 490, -6790, 7140, -463, 366, -93
1127, 242, 940, 243, -210, -6720, 7210, -468, 363, -97
1128, 244, 919, 234, -700, -5320, 7140, -462, 369, -87
1129, 259, 951, 228, -840, -4060, 7070, -469, 361, -100
1130, 240, 999, 238, -630, -2940, 6790, -471, 369, -108
1131, 232, 1026, 269, 1190, -2870, 5740, -466, 366, -94
1132, 246, 1039, 269, 2870, -4900, 5320, -469, 361, -94
1133, 249, 1016, 236, 4620, -7770, 5110, -471, 366, -94
1134, 240, 899, 212, 5810, -10570, 5180, -463, 372, -96
1135, 252, 816, 182, 5040, -11620, 4830, -481, 367, -99
1136, 349, 923, 151, 3640, -8820, 4970, -478, 364, -91
1137, 359, 1010, 156, 2240, -4550, 4900, -468, 369, -93
1138, 365, 1024, 180, 1190, -350, 5250, -468, 363, -96
1139, 326, 989, 228, 770, 3360, 5110, -480, 360, -97
1140, 281, 877, 267, 3010, 7140, 4690, -478, 366, -97
1141, 238, 797, 270, 5110, 6580, 4620, -483, 360, -87
1142, 201, 701, 251, 6720, 4410, 4130, -471, 366, -76
1143, 170, 627, 231, 7070, 770, 3570, -466, 379, -88
1144, 175, 634, 216, 6300, -2730, 2520, -474, 360, -91
1145, 266, 896, 198, 3220, -7000, 770, -468, 355, -87
1146, 348, 1007, 213, 1890, -5950, 490, -462, 372, -91
1147, 339, 1056, 232, 490, -3640, 280, -475, 367, -93
1148, 399, 1135, 254, -630, -1470, 70, -472, 367, -84
1149, 514, 1396, 213, -1120, 2310, 140, -472, 369, -82
1150, 434, 1343, 208, -1190, 2240, 70, -468, 367, -85
1151, 355, 1129, 203, -2170, 140, -770, -484, 367, -85
1152, 278, 942, 187, -3850, -2520, -2240, -469, 360, -88
1153, 270, 846, 152, -5180, -4690, -3920, -465, 363, -81
1154, 252, 679, 144, -5600, -6790, -6930, -468, 355, -90
1155, 243, 618, 161, -5320, -7630, -8260, -466, 358, -90
1156, 258, 647, 185, -5040, -8680, -9590, -469, 354, -91
1157, 285, 777, 198, -4550, -10010, -10850, -475, 361, -88
1158, 304, 893, 222, -3920, -11620, -11970, -465, 352, -96
1159, 295, 899, 248, -1960, -13930, -14630, -468, 358, -88
1160, 302, 883, 246, -350, -14420, -16170, -471, 358, -87
1161, 322, 930, 223, 1750, -14420, -17500, -469, 358, -96
1162, 342, 943, 192, 3710, -14140, -18410, -466, 355, -88
1163, 348, 817, 175, 4200, -14140, -20020, -471, 349, -90
1164, 331, 920, 156, 2240, -14000, -20860, -460, 355, -90
1165, 413, 1105, 122, 140, -12390, -21630, -460, 361, -97
1166, 410, 1275, 109, -2030, -9520, -22050, -466, 352, -99
1167, 435, 1289, 112, -4760, -6930, -22820, -457, 357, -94
1168, 397, 1190, 143, -11060, -2730, -25200, -465, 348, -102
1169, 397, 1148, 142, -13020, -1050, -26320, -457, 342, -99
1170, 374, 994, 162, -13160, 1610, -27300, -459, 342, -108
1171, 324, 760, 198, -11970, 4200, -28210, -448, 351, -96
1172, 295, 602, 221, -9800, 7280, -29400, -444, 337, -102
1173, 258, 728, 178, -4270, 12180, -31360, -459, 349, -100
1174, 233, 792, 185, -2240, 13020, -32200, -450, 346, -106
1175, 194, 817, 206, -1260, 13090, -33110, -447, 345, -103
1176, 188, 873, 214, -1050, 12530, -34020, -442, 342, -99
1177, 190, 1044, 182, -700, 11690, -34720, -447, 339, -109
1178, 165, 993, 190, -350, 10920, -34650, -444, 342, -109
1179, 139, 889, 210, -140, 9660, -34370, -448, 349, -103
1180, 116, 874, 195, 210, 8470, -34230, -432, 337, -108
1181, 113, 920, 172, 840, 7560, -34020, -441, 340, -102
1182, 134, 911, 160, 1540, 7910, -33390, -433, 331, -102
1183, 147, 935, 151, 1120, 9590, -33040, -435, 336, -112
1184, 200, 1023, 162, 210, 11760, -32690, -421, 340, -108
1185, 220, 1100, 159, -770, 14630, -32410, -432, 340, -114
1186, 241, 1067, 183, -1610, 17360, -31990, -417, 331, -111
1187, 192, 892, 233, -1050, 22260, -32060, -420, 327, -103
1188, 155, 896, 220, 420, 23450, -32410, -423, 330, -105
1189, 133, 897, 215, 2520, 24010, -32690, -424, 327, -103
1190, 102, 851, 215, 4620, 23940, -33180, -418, 330, -106
1191, 75, 825, 189, 6720, 21840, -34370, -412, 334, -96
1192, 81, 887, 177, 6580, 20020, -34930, -414, 325, -105
1193, 77, 936, 165, 6370, 18690, -35420, -406, 321, -106
1194, 78, 949, 172, 6020, 17150, -35910, -414, 316, -108
1195, 76, 945, 180, 5670, 16310, -36330, -402, 325, -99
1196, 67, 962, 197, 4760, 14630, -36820, -417, 318, -100
1197, 65, 949, 194, 4900, 14000, -36890, -409, 310, -93
1198, 63, 905, 198, 5460, 13300, -36820, -405, 322, -97
1199, 71, 847, 194, 6720, 13720, -36890, -400, 319, -91
1200, 78, 829, 188, 8470, 18060, -36960, -405, 315, -94
1201, 86, 923, 165, 12880, 20370, -37030, -405, 313, -96
1202, 99, 982, 152, 14560, 22820, -37380, -391, 321, -97
1203, 93, 1081, 138, 14560, 23590, -38010, -393, 309, -108
1204, 107, 1173, 114, 13440, 23170, -39060, -387, 313, -93
1205, 137, 1222, 68, 8750, 20090, -41650, -379, 310, -88
1206, 143, 1161, 52, 6440, 18690, -42770, -373, 312, -88
1207, 147, 1059, 52, 4900, 17430, -44030, -373, 298, -84
1208, 135, 966, 51, 3850, 15960, -45430, -384, 304, -94
1209, 136, 899, 44, 3500, 14980, -46970, -381, 300, -87
1210, 122, 846, 39, 3920, 13510, -50960, -376, 300, -93
1211, 124, 853, 39, 4340, 13720, -53270, -366, 295, -90
1212, 142, 870, 37, 4690, 14070, -55510, -364, 298, -93
1213, 129, 900, 44, 5250, 15400, -57820, -361, 292, -88
1214, 129, 915, 44, 5250, 16100, -62860, -363, 286, -93
1215, 124, 920, 30, 4970, 15960, -65380, -358, 291, -96
1216, 111, 909, 28, 4480, 15610, -67900, -349, 288, -93
1217, 105, 890, 28, 3920, 15120, -70560, -349, 276, -90
1218, 88, 876, 25, 3500, 14630, -73220, -351, 277, -97
1219, 74, 844, 27, 3290, 13930, -78820, -342, 285, -91
1220, 75, 829, 30, 3220, 13860, -81830, -345, 276, -94
1221, 65, 823, 31, 3360, 14070, -84840, -337, 265, -99
1222, 65, 816, 32, 3430, 14280, -87850, -337, 268, -97
1223, 63, 806, 31, 3640, 14840, -91070, -339, 264, -96
1224, 52, 780, 34, 3990, 16590, -97440, -331, 256, -99
1225, 50, 766, 34, 4200, 17780, -100660, -321, 249, -100
1226, 33, 756, 34, 4410, 18970, -104020, -321, 249, -100
1227, 25, 738, 36, 4550, 20160, -107450, -313, 232, -103
1228, 14, 719, 41, 5110, 22820, -114660, -307, 223, -103
1229, -7, 688, 47, 5390, 24150, -118440, -306, 228, -91
1230, -17, 670, 51, 5740, 25550, -122290, -295, 226, -114
1231, -26, 649, 59, 6090, 26880, -126210, -280, 217, -102
1232, -37, 624, 65, 6510, 28350, -130200, -298, 207, -108
1233, -67, 577, 80, 7140, 31290, -138530, -283, 198, -105
1234, -83, 554, 85, 7420, 32970, -142870, -279, 186, -102
1235, -98, 528, 91, 7980, 34580, -147350, -274, 184, -103
1236, -114, 502, 92, 8400, 36330, -151970, -267, 172, -96
1237, -128, 472, 92, 8960, 37800, -156660, -255, 169, -99
1238, -166, 417, 86, 9730, 40180, -166250, -270, 163, -109
1239, -196, 390, 80, 9940, 41160, -171220, -247, 141, -109
1240, -217, 360, 75, 10080, 42070, -176260, -249, 133, -109
1241, -244, 333, 64, 10010, 42560, -181510, -235, 126, -109
1242, -288, 300, 56, 9310, 41720, -192360, -232, 112, -106
1243, -326, 234, 52, 9030, 41860, -197890, -228, 90, -109
1244, -312, 180, 67, 9030, 42630, -202650, -235, 88, -108
1245, -126, 65, 125, 10220, 44800, -205800, -219, 55, -114
1246, -147, 38, 249, 14070, 51520, -207690, -214, 43, -127
1247, -868, 403, 267, 27510, 70000, -214830, -211, 30, -112
1248, -1978, 865, 156, 31780, 82530, -229950, -201, 4, -114
1249, -2581, 1014, 110, 28070, 70000, -253960, -201, -3, -111
1250, -1157, 639, 9, 18270, 39130, -263410, -204, -18, -121
1251, -51, 45, -144, 20790, 69930, -268520, -198, -36, -114
1252, -193, 5, -206, 23310, 76440, -271320, -198, -52, -121
1253, -702, -117, -179, 22260, 72450, -273630, -189, -70, -115
1254, -362, -369, 1187, 14140, 60900, -280070, -204, -90, -111
1255, -2700, 3975, -1167, -46620, 604730, -89320, -187, -79, 27
1256, -2470, 1417, -3997, 105490, 219800, 739200, -235, -45, 132
1257, -3997, -795, -3997, -41580, -233310, 638120, -217, -15, 142
1258, -3997, 1728, -3997, 166740, 94500, 1032780, -241, 34, 162
1259, -3997, 659, 2402, -14280, 27510, 543900, -250, 48, 211
1260, -3185, -305, 3458, 46480, 147420, -386820, -232, 21, 150
1261, -2685, 1291, -154, 66010, 245210, -336980, -246, -1, 171
1262, -2319, 1234, -3997, -96530, -463260, -830620, -214, -49, 76
1263, 85, 368, 373, -6300, -464590, -681730, -196, -96, -6
1264, 857, 1246, -3997, 69160, -915460, -703080, -193, -144, -87
1265, 1255, 1874, -324, 98350, -647710, -453320, -208, -175, -156
1266, 2467, 1285, 2370, 41440, -166880, -87710, -219, -189, -180
1267, 1331, -795, 1040, -25760, 117180, -54600, -217, -196, -160
1268, -1056, -180, -2857, -35280, 98210, 259280, -217, -177, -163
1269, -833, 481, 1275, 36610, -214200, 264250, -214, -160, -147
1270, -1385, 66, 193, -8470, 46970, 12460, -210, -162, -151
1271, -1144, 181, -874, 4200, -58940, 10500, -201, -165, -147
1272, -1239, 506, 1280, -3920, -16030, 17430, -211, -153, -150
1273, -895, 357, -1068, -1820, -13440, 1470, -214, -150, -144
1274, -689, 55, 772, 4410, -22540, 840, -204, -151, -147
1275, -1334, 75, -292, -4690, 40950, 7490, -202, -160, -150
1276, -892, 652, -18, 10220, -61880, -70, -202, -153, -157
1277, -744, 84, 4, -2170, 22750, 700, -199, -159, -156
1278, -1120, 449, 114, -2730, 20090, -630, -199, -148, -148
1279, -1176, 80, -365, 700, -14000, 1540, -208, -154, -153
1280, -945, 131, -148, -770, -490, -140, -201, -162, -156
1281, -931, 331, 218, -630, 7490, -70, -207, -154, -151
1282, -1062, 179, -168, 70, -3780, 70, -198, -159, -153
1283, -865, 365, 100, 910, 1890, 70, -213, -148, -154
1284, -937, 281, 231, 840, 840, -350, -208, -154, -153
1285, -1033, 313, -293, -980, -770, 0, -205, -159, -156
1286, -889, 247, 267, 350, -3080, 70, -204, -160, -153
1287, -1043, 332, -338, -1330, 4760, 0, -202, -156, -145
1288, -888, 204, 315, 1540, -8400, 70, -201, -162, -159
1289, -900, 196, 297, 1120, -5530, -140, -213, -159, -135
1290, -1030, 362, -313, -1190, 9170, -210, -195, -157, -150
1291, -960, 185, 235, 1330, -7280, 210, -211, -153, -150
1292, -965, 402, -277, -700, 4830, -210, -196, -157, -150
1293, -928, 207, 198, 630, -6090, 0, -207, -156, -153
1294, -955, 188, 157, 560, -5880, 140, -211, -162, -148
1295, -978, 353, -166, -700, 6650, -140, -199, -160, -150
1296, -936, 226, 111, 980, -6300, 70, -201, -163, -151
1297, -975, 349, -131, -700, 7210, -280, -202, -151, -145
1298, -991, 313, -82, -910, 7560, -140, -201, -160, -156
1299, -955, 255, 16, 700, -7560, 140, -204, -153, -148
1300, -968, 298, -20, -700, 7070, 0, -199, -159, -154
1301, -937, 293, -39, 700, -7490, -140, -201, -154, -141
1302, -960, 275, 39, -700, 7280, -210, -211, -159, -154
1303, -961, 250, 82, -490, 6790, 70, -204, -154, -150
1304, -973, 329, -144, 560, -5880, -70, -216, -154, -148
1305, -938, 246, 115, -560, 5180, -70, -201, -150, -150
1306, -977, 339, -167, 490, -5180, -280, -201, -160, -153
1307, -934, 226, 146, -490, 3990, -70, -211, -160, -162
1308, -927, 227, 155, -280, 2800, 140, -207, -160, -147
1309, -994, 346, -194, 280, -1610, -210, -213, -153, -147
1310, -916, 238, 150, -70, 980, -140, -205, -159, -157
1311, -1008, 334, -183, 0, -280, -280, -207, -159, -150
1312, -1009, 324, -167, -140, 1470, -70, -205, -157, -151
1313, -905, 252, 123, 210, -2030, 0, -205, -154, -147
1314, -1007, 319, -146, -210, 2870, -210, -199, -160, -148
1315, -910, 260, 98, 350, -3430, -140, -205, -162, -165
1316, -1015, 301, -118, -350, 4200, -140, -198, -159, -153
1317, -1006, 293, -89, -560, 5250, -70, -204, -159, -151
1318, -911, 288, 38, 560, -5530, -140, -201, -150, -150
1319, -1002, 280, -55, -560, 5880, -210, -199, -162, -141
1320, -924, 294, 5, 630, -6230, -140, -202, -151, -148
1321, -997, 266, -21, -700, 6650, 0, -195, -162, -150
1322, -983, 262, 4, -770, 6790, -70, -198, -157, -145
1323, -940, 315, -54, 700, -6650, -140, -205, -159, -148
1324, -975, 254, 33, -840, 6580, 0, -210, -151, -157
1325, -954, 316, -76, 700, -6230, -70, -202, -157, -150
1326, -962, 321, -98, 700, -5600, -140, -198, -156, -147
1327, -949, 254, 68, -630, 5390, -70, -207, -160, -148
1328, -980, 317, -110, 630, -4760, -140, -202, -154, -156
1329, -939, 253, 81, -560, 4270, -70, -205, -163, -150
1330, -988, 313, -116, 490, -3430, -140, -207, -157, -157
1331, -996, 308, -117, 350, -2170, -140, -195, -156, -160
1332, -920, 266, 81, -280, 1680, -70, -199, -163, -153
1333, -1006, 299, -111, 210, -770, -70, -204, -156, -157
1334, -913, 273, 74, -140, 280, -70, -202, -145, -148
1335, -1008, 294, -103, 0, -1050, -70, -204, -151, -141
1336, -1011, 287, -90, -70, 2030, -140, -208, -144, -150
1337, -910, 287, 47, 210, -2380, -140, -199, -151, -136
1338, -1009, 279, -72, -210, 3220, -70, -204, -151, -139
1339, -912, 294, 30, 350, -3430, -140, -207, -159, -148
1340, -919, 299, 10, 490, -4270, -140, -196, -154, -142
1341, -1000, 269, -36, -560, 4760, -70, -199, -151, -145
1342, -925, 303, -6, 560, -4760, -70, -208, -156, -147
1343, -991, 266, -18, -630, 5180, -70, -207, -150, -150
1344, -934, 305, -24, 560, -5040, -140, -201, -154, -150
1345, -944, 306, -39, 560, -4970, -210, -204, -156, -139
1346, -971, 265, 12, -630, 5110, -140, -202, -165, -144
1347, -955, 305, -52, 560, -4690, -140, -196, -154, -145
1348, -961, 266, 23, -630, 4760, -70, -204, -151, -153
1349, -965, 303, -61, -560, 4060, -70, -204, -160, -145
1350, -974, 299, -67, 490, -3430, -140, -207, -157, -147
1351, -942, 273, 36, -490, 3220, -70, -202, -156, -154
1352, -983, 295, -71, 280, -2590, -70, -196, -157, -148
1353, -935, 277, 37, -280, 2380, -70, -198, -153, -153
1354, -929, 281, 36, -210, 1400, -70, -205, -163, -148
1355, -994, 287, -68, 140, -630, -70, -205, -151, -147
1356, -924, 285, 34, -140, 420, -70, -210, -153, -141
1357, -996, 283, -64, 0, 280, -70, -208, -156, -154
1358, -924, 290, 27, 0, -560, -140, -202, -151, -147
1359, -924, 293, 20, 140, -1330, -70, -205, -157, -147
1360, -996, 276, -48, -210, 2030, 0, -208, -157, -142
1361, -927, 295, 12, 210, -2030, -70, -204, -150, -145
1362, -992, 274, -40, -280, 2660, -70, -199, -154, -144
1363, -930, 297, 0, -350, 3010, -70, -205, -150, -139
1364, -935, 298, -7, 280, -3010, -140, -204, -166, -156
1365, -983, 272, -21, -420, 3430, -70, -207, -153, -151
1366, -942, 298, -17, 350, -3150, -140, -205, -160, -156
1367, -976, 274, -12, -420, 3360, -70, -204, -159, -145
1368, -970, 274, -4, -420, 3360, 0, -193, -168, -142
1369, -955, 296, -30, 350, -3080, -70, -208, -153, -138
1370, -962, 275, 1, -420, 3150, -70, -202, -159, -145
1371, -962, 294, -37, 350, -2660, -140, -202, -160, -144
1372, -956, 278, 6, -350, 2730, -140, -207, -156, -144
1373, -949, 280, 9, -280, 2240, -70, -210, -153, -145
1374, -974, 289, -44, 280, -1750, -70, -207, -157, -148
1375, -945, 283, 10, -210, 1610, -140, -201, -156, -147
1376, -978, 286, -44, 140, -1120, -70, -210, -156, -144
1377, -941, 286, 10, 70, -490, -70, -213, -159, -144
1378, -939, 288, 8, -70, 490, -140, -208, -154, -151
1379, -983, 282, -41, 70, 140, -140, -201, -160, -141
1380, -938, 289, 6, -70, -140, -140, -208, -154, -150
1381, -982, 280, -38, 0, 630, -70, -204, -151, -147
1382, -982, 280, -34, -70, 1190, -70, -199, -153, -147
1383, -940, 293, 0, 70, -980, -70, -207, -151, -147
1384, -979, 278, -30, -140, 1540, -70, -198, -160, -136
1385, -942, 292, -5, 140, -1330, -70, -199, -154, -148
1386, -977, 278, -24, -210, 1750, -70, -208, -157, -145
1387, -973, 278, -19, -210, 1960, -70, -210, -157, -145
1388, -950, 291, -15, 210, -1750, -70, -202, -157, -148
1389, -970, 279, -17, -280, 1960, -70, -201, -157, -142
1390, -953, 291, -19, 210, -1680, -70, -201, -166, -151
1391, -965, 280, -12, 210, -1540, -70, -204, -150, -144
1392, -961, 281, -9, -210, 1750, -70, -199, -159, -148
1393, -961, 289, -25, 140, -1330, -70, -208, -156, -144
1394, -958, 282, -6, -210, 1540, -70, -211, -160, -142
1395, -964, 288, -27, 210, -1120, -140, -210, -163, -147
1396, -968, 286, -29, 70, -840, -70, -207, -159, -142
1397, -953, 285, -3, -70, 980, -70, -201, -159, -160
1398, -969, 285, -30, 70, -560, -70, -202, -160, -150
1399, -951, 286, -3, -140, 630, -70, -213, -144, -142
1400, -971, 284, -29, 70, -210, -70, -208, -159, -138
1401, -972, 283, -27, 70, 70, -70, -207, -157, -148
1402, -949, 288, -5, 0, 70, -140, -202, -151, -142
1403, -972, 283, -26, -70, 350, -70, -201, -147, -139
1404, -949, 289, -7, 70, -210, -70, -201, -156, -144
1405, -971, 289, -8, 0, -350, -70, -201, -159, -136
1406, -970, 281, -22, -140, 700, -140, -202, -160, -151
1407, -951, 289, -11, 0, -490, -70, -205, -153, -147
1408, -969, 282, -20, -140, 980, -70, -198, -154, -153
1409, -953, 289, -13, 70, -700, -70, -207, -156, -148
1410, -954, 289, -15, 0, -770, -70, -208, -160, -147
1411, -965, 283, -15, -140, 1120, -70, -204, -162, -139
1412, -960, 288, -18, 140, -630, -140, -199, -153, -147
1413, -963, 282, -14, -140, 910, -70, -204, -154, -148
1414, -959, 288, -19, 70, -700, -140, -198, -168, -144
1415, -960, 286, -19, 70, -490, -70, -202, -154, -136
1416, -959, 284, -11, -70, 770, -70, -207, -159, -154
1417, -963, 286, -21, 70, -490, -140, -202, -151, -148
1418, -957, 284, -10, -140, 700, -70, -204, -159, -138
1419, -956, 285, -10, -70, 420, -140, -207, -151, -144
1420, -964, 285, -21, 0, -140, -70, -199, -151, -142
1421, -956, 286, -10, -70, 350, -140, -201, -153, -145
1422, -966, 285, -22, 0, 70, -70, -204, -159, -139
1423, -955, 287, -10, 0, 280, -70, -205, -156, -139
1424, -955, 287, -10, -70, 0, -70, -204, -168, -147
1425, -966, 284, -21, 0, 280, -70, -207, -169, -156
1426, -956, 287, -12, 70, -70, -70, -214, -154, -144
1427, -965, 284, -19, -70, 350, -140, -205, -160, -148
1428, -956, 287, -12, -70, -140, -70, -198, -153, -148
1429, -956, 287, -14, 0, -210, -70, -208, -147, -147
1430, -963, 283, -19, -70, 560, -70, -205, -160, -142
1431, -957, 287, -14, 70, -280, -70, -211, -159, -141
1432, -963, 284, -16, -140, 490, -140, -201, -165, -139
1433, -961, 284, -15, -140, 560, -140, -202, -154, -138
1434, -959, 287, -18, 70, -280, -70, -199, -159, -157
1435, -962, 284, -14, -70, 490, -70, -202, -165, -142
1436, -960, 287, -17, 0, -280, -70, -207, -148, -147
1437, -960, 284, -14, -70, 490, -70, -210, -151, -154
1438, -960, 284, -13, 0, 420, -140, -211, -159, -141
1439, -962, 286, -19, 0, -210, -70, -207, -159, -145
1440, -959, 286, -13, -70, 350, -70, -204, -154, -145
1441, -962, 286, -19, 70, -70, -70, -204, -156, -136
1442, -959, 285, -14, 0, 210, -140, -208, -159, -145
1443, -957, 286, -13, 0, 210, -70, -202, -159, -147
1444, -963, 284, -19, 0, 70, -70, -207, -156, -154
1445, -958, 286, -13, -70, 140, -70, -204, -159, -142
1446, -963, 285, -19, 0, 210, -70, -211, -157, -141
1447, -962, 284, -17, 0, 210, -70, -204, -157, -150
1448, -957, 286, -15, 0, 70, -70, -210, -150, -142
1449, -963, 285, -17, 0, 280, -140, -201, -162, -147
1450, -958, 285, -14, 0, 0, -140, -205, -160, -147
1451, -963, 285, -18, -70, 350, -70, -196, -160, -141
1452, -962, 285, -17, 0, 420, -70, -205, -154, -150
1453, -959, 286, -15, 0, -140, -70, -202, -153, -148
1454, -962, 285, -15, -70, 350, -70, -204, -153, -150
1455, -959, 286, -16, 0, -70, -140, -208, -163, -144
1456, -961, 285, -16, 0, 280, -70, -208, -160, -145
1457, -961, 285, -15, -70, 420, -140, -202, -157, -141
1458, -960, 285, -17, 70, -140, -70, -201, -159, -145
1459, -960, 285, -15, -70, 280, -70, -208, -148, -136
1460, -960, 286, -17, -70, 0, -70, -201, -159, -148
1461, -960, 286, -18, 0, 0, -70, -202, -151, -144
1462, -959, 285, -14, 0, 280, -70, -210, -153, -142
1463, -961, 286, -18, 0, 70, -140, -211, -153, -145
1464, -959, 286, -13, 0, 140, -70, -201, -154, -151
1465, -962, 285, -17, 0, 140, -70, -205, -154, -136
1466, -962, 285, -17, 0, 210, -70, -204, -154, -138
1467, -960, 285, -15, 0, 140, -70, -208, -153, -145
1468, -962, 285, -18, 0, 210, -70, -198, -148, -145
1469, -959, 284, -13, 0, 140, -70, -210, -165, -147
1470, -961, 284, -16, 0, 210, -140, -198, -159, -142
1471, -962, 285, -17, -70, 210, -70, -196, -165, -142
1472, -959, 285, -16, 70, 0, -140, -211, -147, -145
1473, -961, 285, -15, 0, 210, -70, -202, -156, -138
1474, -960, 286, -15, -70, -70, -70, -207, -156, -141
1475, -960, 286, -16, 0, 70, -70, -195, -163, -141
1476, -961, 285, -16, 0, 280, -70, -207, -154, -147
1477, -960, 286, -16, 0, 70, -140, -204, -156, -138
1478, -960, 285, -16, 0, 280, -70, -210, -163, -147
1479, -960, 286, -16, 0, 70, -70, -204, -160, -141
1480, -960, 285, -16, 0, 70, -70, -213, -153, -148
1481, -960, 284, -15, -70, 210, 0, -204, -154, -151
1482, -959, 285, -16, 0, 70, -70, -204, -150, -148
1483, -962, 285, -16, -70, 280, -140, -208, -162, -142
1484, -962, 285, -17, 0, 210, -70, -208, -157, -145
1485, -960, 285, -17, 0, 70, -140, -210, -154, -150
1486, -959, 284, -14, -70, 210, -70, -198, -157, -141
1487, -962, 284, -16, 0, 140, -70, -208, -150, -150
1488, -960, 285, -14, 0, 140, -70, -196, -157, -141
1489, -960, 286, -15, 0, 210, -140, -211, -157, -147
1490, -962, 285, -17, 0, 70, -70, -205, -153, -148
1491, -959, 285, -15, -70, 70, -70, -205, -151, -145
1492, -961, 285, -15, 0, 140, -70, -202, -157, -138
1493, -959, 286, -15, 0, 70, -140, -198, -162, -153
1494, -959, 285, -15, -70, 70, -70, -205, -163, -141
1495, -961, 285, -16, -70, 210, -140, -207, -157, -144
1496, -960, 286, -15, 0, 70, -70, -202, -159, -150
1497, -960, 285, -16, 0, 280, -140, -196, -160, -139
1498, -960, 286, -16, 0, 280, -70, -201, -148, -154
1499, -960, 285, -15, 0, 70, -70, -199, -153, -142
1500, -961, 285, -16, 0, 210, -70, -204, -154, -145
1501, -961, 285, -17, -70, 70, -140, -202, -151, -147
1502, -960, 285, -15, 0, 140, -70, -204, -160, -141
1503, -960, 285, -15, 0, 210, -70, -205, -153, -148
1504, -960, 285, -16, 0, 140, -70, -207, -162, -153
1505, -960, 285, -15, 0, 140, -70, -201, -157, -139
1506, -961, 286, -17, 0, 70, -70, -204, -160, -147
1507, -961, 286, -16, 0, 140, -70, -201, -156, -145
1508, -960, 286, -16, 0, 140, -70, -211, -165, -145
1509, -960, 286, -17, -70, 140, -70, -201, -150, -139
1510, -960, 286, -15, 0, 140, -70, -210, -151, -139
1511, -962, 286, -16, 0, 140, -70, -211, -154, -142
1512, -960, 286, -15, 0, 210, -140, -202, -150, -151
1513, -961, 285, -15, 0, 140, -70, -205, -160, -145
1514, -961, 284, -16, 0, 140, -70, -201, -157, -142
1515, -960, 285, -15, -70, 70, -70, -199, -162, -139
1516, -961, 286, -16, 70, 140, -140, -198, -157, -148
1517, -961, 285, -15, -70, 210, -70, -210, -154, -142
1518, -960, 286, -15, -70, 140, -70, -207, -156, -147
1519, -961, 285, -16, -70, 140, -70, -196, -142, -147
1520, -960, 285, -16, 0, 140, -70, -205, -160, -150
1521, -961, 285, -16, 0, 210, 0, -207, -156, -145
1522, -960, 285, -14, 0, 140, -70, -195, -156, -139
1523, -960, 285, -16, 0, 140, -70, -199, -160, -150
1524, -960, 286, -14, -70, 210, -70, -210, -156, -145
1525, -960, 285, -16, 70, 210, -70, -204, -160, -141
1526, -960, 285, -15, 0, 140, -70, -202, -162, -150
1527, -960, 285, -15, -70, 140, -70, -208, -150, -147
1528, -960, 285, -16, -70, 210, -70, -198, -156, -144
1529, -960, 286, -16, 0, 140, -70, -214, -159, -138
1530, -960, 285, -15, -70, 210, -140, -198, -160, -151
1531, -961, 286, -16, -70, 280, -70, -208, -154, -144
1532, -960, 285, -16, 0, 140, -140, -204, -157, -145
1533, -961, 285, -16, 0, 140, -70, -202, -157, -138
1534, -961, 285, -15, 0, 140, -70, -202, -151, -144
1535, -960, 285, -15, -70, 140, -140, -202, -160, -142
1536, -961, 285, -15, 0, 210, -70, -205, -159, -148
1537, -960, 286, -15, 0, 140, -70, -202, -153, -129
1538, -961, 285, -16, 0, 140, -70, -211, -160, -153
1539, -960, 285, -16, 0, 140, -70, -198, -159, -154
1540, -961, 285, -15, 0, 140, -70, -208, -165, -145
1541, -960, 285, -16, -70, 70, -70, -208, -153, -145
1542, -961, 285, -16, 0, 140, -70, -201, -162, -148
1543, -961, 285, -15, -70, 70, -70, -201, -150, -139
1544, -960, 286, -16, 0, 140, -140, -196, -160, -138
1545, -961, 285, -15, 0, 140, -70, -202, -163, -135
1546, -960, 285, -14, 0, 140, -70, -207, -150, -139
1547, -960, 285, -15, -70, 140, -70, -204, -154, -141
1548, -960, 286, -15, -70, 140, -70, -210, -148, -138
1549, -961, 285, -15, 0, 70, -70, -201, -163, -150
1550, -960, 285, -15, -70, 140, -140, -204, -151, -141
1551, -961, 285, -16, 0, 140, -140, -205, -159, -138
1552, -960, 285, -14, -70, 210, -140, -211, -160, -150
1553, -961, 285, -16, 0, 140, -70, -193, -162, -136
1554, -960, 285, -16, -70, 140, -70, -196, -153, -147
1555, -961, 285, -15, -70, 140, -140, -214, -163, -139
1556, -961, 285, -15, 0, 210, -70, -202, -150, -148
1557, -960, 286, -16, 0, 140, -70, -205, -156, -142
1558, -961, 286, -16, 0, 140, -70, -208, -157, -157
1559, -961, 286, -15, -70, 210, -140, -202, -156, -147
1560, -960, 285, -15, 0, 140, -140, -202, -160, -139
1561, -960, 285, -16, 0, 140, -70, -192, -148, -136
1562, -960, 286, -16, -70, 140, -70, -201, -154, -138
1563, -960, 285, -16, 0, 140, -70, -208, -157, -150
1564, -960, 285, -15, 0, 210, -70, -199, -151, -142
1565, -961, 285, -15, 70, 140, -140, -204, -160, -148
1566, -961, 285, -15, 70, 140, -140, -196, -148, -150
1567, -961, 284, -15, 0, 140, -70, -202, -153, -148
1568, -960, 286, -15, 0, 140, -70, -199, -157, -159
1569, -960, 286, -16, 0, 210, -70, -196, -153, -144
1570, -961, 285, -15, 0, 140, -70, -207, -159, -150
1571, -960, 285, -16, -70, 140, -70, -205, -154, -148
1572, -960, 285, -15, 0, 140, -70, -207, -153, -144
1573, -961, 285, -15, 0, 140, -70, -202, -160, -145
1574, -960, 285, -16, 0, 140, -140, -208, -153, -148
1575, -960, 285, -15, -70, 140, -70, -198, -150, -144
1576, -960, 285, -16, -70, 140, -70, -195, -157, -139
1577, -960, 285, -15, -140, 70, -70, -202, -159, -151
1578, -961, 284, -15, 0, 140, -70, -204, -153, -144
1579, -960, 286, -15, 0, 140, -70, -205, -160, -139
1580, -961, 285, -15, 0, 140, -70, -196, -162, -148
1581, -959, 285, -15, 0, 140, -70, -201, -163, -147
1582, -961, 285, -15, -70, 140, -70, -207, -156, -148
1583, -961, 285, -15, 0, 140, -70, -207, -162, -153
1584, -960, 285, -15, -70, 210, -70, -198, -151, -138
1585, -960, 286, -15, -70, 210, -70, -198, -153, -142
1586, -961, 285, -15, -70, 140, -70, -198, -156, -150
1587, -961, 285, -15, 0, 140, -70, -204, -163, -151
1588, -960, 285, -15, -70, 140, -140, -208, -160, -148
1589, -960, 285, -15, -70, 140, -140, -211, -157, -148
1590, -960, 285, -15, 0, 140, -70, -201, -154, -145
1591, -960, 286, -15, 0, 140, -70, -204, -154, -151
1592, -961, 285, -15, 0, 140, -70, -210, -151, -148
1593, -961, 285, -15, -70, 140, -140, -210, -151, -148
1594, -960, 285, -16, 0, 140, -70, -205, -154, -136
1595, -961, 285, -15, 0, 140, -70, -210, -162, -142
1596, -961, 286, -15, 0, 140, -70, -207, -165, -150
1597, -960, 285, -15, 0, 210, -140, -222, -160, -145
1598, -960, 285, -15, 0, 140, -70, -205, -160, -153
1599, -960, 285, -15, 0, 140, -140, -201, -144, -141
1600, -960, 285, -15, 0, 140, -70, -199, -157, -147
1601, -961, 285, -15, 0, 210, -70, -201, -145, -139
1602, -961, 285, -15, 0, 140, -70, -199, -151, -150
1603, -960, 285, -15, -70, 140, -70, -201, -156, -145
1604, -961, 286, -15, -70, 140, -140, -204, -154, -148
1605, -961, 286, -15, 0, 140, -70, -196, -157, -145
1606, -960, 286, -15, 0, 70, -140, -201, -153, -139
1607, -960, 285, -15, 0, 140, -70, -205, -153, -136
1608, -961, 285, -15, -70, 140, -140, -202, -153, -151
1609, -960, 285, -15, -70, 70, -70, -204, -159, -147
1610, -961, 285, -15, 0, 140, -70, -201, -151, -151
1611, -961, 285, -15, 0, 210, -70, -208, -147, -144
1612, -961, 285, -15, 0, 140, -70, -202, -154, -144
1613, -960, 286, -15, 0, 140, -70, -201, -157, -138
1614, -960, 285, -16, -70, 140, -70, -201, -157, -154
1615, -961, 285, -15, 0, 210, -70, -205, -151, -138
1616, -960, 285, -15, 0, 140, -70, -204, -157, -147
1617, -960, 285, -15, -70, 140, -70, -199, -156, -150
1618, -960, 286, -15, 0, 70, -70, -211, -156, -148
1619, -960, 285, -15, 0, 140, -70, -210, -151, -145
1620, -960, 285, -15, 0, 140, -70, -202, -157, -154
1621, -960, 285, -15, -70, 140, -70, -201, -153, -148
1622, -960, 285, -16, 0, 210, -70, -207, -151, -150
1623, -960, 285, -15, 0, 210, -70, -208, -159, -139
1624, -960, 285, -16, -70, 140, -70, -204, -157, -150
1625, -960, 285, -15, 0, 140, -70, -201, -154, -148
1626, -960, 286, -15, -70, 140, -70, -208, -154, -148
1627, -960, 285, -16, -70, 140, -70, -202, -160, -148
1628, -960, 285, -16, -70, 210, -70, -192, -157, -150
1629, -961, 285, -15, 0, 140, -70, -204, -166, -139
1630, -961, 286, -16, 0, 140, -70, -204, -159, -153
1631, -960, 286, -16, 0, 140, -70, -208, -157, -147
1632, -960, 285, -16, -70, 140, -70, -207, -150, -150
1633, -960, 285, -15, 0, 140, -70, -199, -154, -147
1634, -960, 285, -15, 0, 210, -140, -204, -159, -157
1635, -960, 285, -15, -70, 140, -70, -201, -157, -142
1636, -960, 285, -14, -70, 140, -70, -204, -159, -148
1637, -960, 285, -16, 70, 140, -70, -208, -154, -139
1638, -961, 286, -15, 0, 140, -140, -204, -157, -150
1639, -960, 285, -14, 0, 140, -70, -201, -154, -132
1640, -961, 285, -15, -70, 140, -70, -198, -162, -139
1641, -961, 285, -15, -70, 210, -70, -213, -145, -150
1642, -961, 285, -15, 0, 140, -70, -207, -150, -153
1643, -960, 284, -15, 0, 140, -70, -204, -154, -151
1644, -961, 286, -15, 0, 210, -70, -196, -151, -150
1645, -960, 285, -16, -70, 140, -70, -208, -154, -145
1646, -961, 285, -15, 0, 140, -70, -201, -153, -151
1647, -961, 285, -15, 0, 210, -70, -195, -163, -144
1648, -960, 285, -15, 0, 140, -140, -210, -147, -142
1649, -961, 286, -15, 70, 140, -70, -195, -151, -139
1650, -961, 285, -14, 0, 140, -70, -205, -156, -150
1651, -960, 285, -15, -70, 140, -70, -199, -151, -148
1652, -960, 285, -16, 0, 140, -70, -201, -153, -148
1653, -960, 285, -16, -70, 210, -70, -205, -154, -148
1654, -961, 285, -15, 0, 140, 0, -198, -159, -154
1655, -960, 286, -15, 0, 70, -70, -204, -154, -145
1656, -961, 286, -15, 70, 140, -70, -205, -148, -153
1657, -960, 285, -14, -70, 210, -70, -198, -159, -141
1658, -961, 285, -15, 0, 140, -70, -202, -163, -148
1659, -960, 286, -15, -70, 140, -70, -208, -156, -145
1660, -960, 285, -16, -70, 140, -70, -210, -159, -141
1661, -960, 285, -15, -70, 140, -70, -202, -156, -142
1662, -960, 286, -15, -70, 210, -70, -216, -160, -141
1663, -960, 286, -15, 0, 210, -70, -204, -154, -156
1664, -960, 285, -15, 0, 70, -70, -210, -159, -141
1665, -960, 285, -15, 0, 210, -140, -205, -160, -148
1666, -960, 286, -15, -70, 140, -140, -198, -148, -150
1667, -960, 285, -15, 0, 70, -140, -210, -148, -145
1668, -960, 285, -14, 0, 210, -140, -207, -157, -142
1669, -961, 285, -14, 0, 210, -70, -210, -159, -141
1670, -961, 285, -16, 0, 140, -140, -198, -151, -156
1671, -961, 285, -15, 0, 140, -140, -205, -156, -139
1672, -960, 286, -15, 0, 140, -70, -211, -154, -151
1673, -960, 285, -15, 0, 140, -70, -205, -154, -156
1674, -960, 285, -15, 0, 140, -70, -199, -150, -142
1675, -960, 285, -14, 0, 70, -70, -202, -156, -148
1676, -960, 285, -15, 0, 70, -140, -205, -153, -157
1677, -961, 285, -15, 0, 140, -70, -210, -151, -144
1678, -960, 285, -15, 0, 140, -70, -205, -162, -145
1679, -960, 285, -15, 0, 210, -70, -208, -169, -148
1680, -961, 286, -14, -70, 140, -70, -199, -160, -141
1681, -961, 285, -15, 0, 210, -70, -207, -166, -148
1682, -959, 285, -15, 0, 70, -70, -201, -145, -153
1683, -960, 284, -16, 0, 140, -70, -199, -157, -153
1684, -961, 285, -15, 70, 140, -70, -192, -159, -147
1685, -961, 286, -15, -70, 210, -70, -216, -154, -139
1686, -960, 285, -16, -70, 140, -70, -202, -160, -144
1687, -960, 285, -14, 0, 210, -70, -196, -156, -144
1688, -960, 285, -14, 0, 140, -70, -210, -147, -153
1689, -960, 285, -15, 0, 140, -70, -199, -163, -145
1690, -961, 285, -15, -70, 140, -70, -199, -153, -144
1691, -961, 286, -15, 0, 70, -70, -204, -153, -147
1692, -960, 285, -15, -70, 140, -140, -201, -153, -153
1693, -960, 285, -15, 0, 70, -70, -196, -160, -150
1694, -959, 285, -15, 0, 210, -70, -214, -163, -145
1695, -960, 285, -15, 0, 140, -70, -198, -162, -142
1696, -961, 286, -15, 0, 140, -70, -204, -151, -151
1697, -960, 285, -15, 0, 140, -140, -204, -157, -148
1698, -960, 285, -14, -70, 140, -140, -205, -150, -142
1699, -960, 285, -15, -70, 140, -70, -205, -163, -148
1700, -961, 286, -15, 0, 210, -70, -207, -150, -144
1701, -960, 285, -15, 0, 210, -70, -201, -150, -148
1702, -961, 285, -15, 0, 140, -140, -207, -156, -156
1703, -960, 285, -15, 0, 210, -70, -202, -160, -145
1704, -960, 285, -15, -70, 140, -70, -208, -159, -142
1705, -961, 285, -15, -70, 210, -70, -199, -142, -150
1706, -961, 285, -15, 0, 140, -70, -204, -157, -138
1707, -960, 285, -15, -70, 140, -70, -196, -151, -142
1708, -961, 284, -15, 0, 70, -140, -204, -159, -142
1709, -960, 285, -15, 0, 140, -70, -202, -154, -147
1710, -960, 285, -15, -70, 140, -70, -214, -153, -144
1711, -961, 285, -16, 0, 140, -70, -211, -148, -138
1712, -960, 286, -15, 0, 140, -140, -199, -154, -151
1713, -960, 285, -16, -70, 140, -70, -207, -163, -136
1714, -960, 285, -15, 70, 210, -70, -208, -154, -150
1715, -961, 285, -16, 0, 70, -70, -202, -166, -139
1716, -960, 285, -15, 0, 140, -70, -201, -156, -142
1717, -960, 285, -15, 0, 140, -70, -207, -156, -141
1718, -960, 285, -15, 70, 140, -70, -204, -156, -144
1719, -960, 286, -15, 0, 140, -140, -207, -147, -153
1720, -960, 285, -14, 0, 140, -70, -196, -159, -147
1721, -961, 285, -15, 0, 140, -70, -202, -150, -139
1722, -961, 285, -15, 0, 210, -70, -204, -153, -150
1723, -960, 284, -16, -70, 140, -70, -202, -159, -142
1724, -960, 285, -16, 0, 210, -70, -199, -160, -151
1725, -960, 285, -14, 0, 140, -140, -207, -159, -142
1726, -961, 285, -15, -70, 140, -140, -207, -157, -145
1727, -961, 285, -16, 0, 140, -70, -195, -153, -147
1728, -960, 286, -15, 0, 140, -70, -208, -154, -141
1729, -960, 286, -15, -70, 70, -70, -207, -147, -145
1730, -960, 285, -16, 0, 70, -70, -211, -156, -147
1731, -959, 285, -15, -70, 140, -140, -199, -157, -136
1732, -960, 286, -15, 0, 140, -140, -204, -154, -139
1733, -960, 286, -16, 70, 210, -140, -205, -160, -144
1734, -960, 286, -14, 70, 210, -70, -205, -154, -145
1735, -960, 285, -15, 70, 140, -70, -208, -147, -145
1736, -960, 286, -15, -70, 140, -70, -204, -150, -150
1737, -960, 285, -15, 0, 140, -70, -205, -156, -141
1738, -961, 285, -15, 0, 210, -70, -208, -151, -142
1739, -960, 285, -15, -70, 140, -140, -208, -157, -141
1740, -961, 285, -15, -70, 140, -70, -205, -150, -148
1741, -960, 285, -15, 0, 210, -70, -210, -157, -141
1742, -960, 285, -15, 0, 140, -70, -199, -157, -142
1743, -960, 285, -14, 0, 140, -140, -202, -150, -144
1744, -960, 285, -15, 0, 140, -70, -201, -157, -145
1745, -960, 285, -15, -70, 140, -70, -198, -153, -135
1746, -960, 285, -15, 0, 70, -70, -199, -157, -147
1747, -960, 285, -15, 0, 140, -70, -202, -157, -145
1748, -960, 286, -15, 0, 140, -70, -207, -159, -145
1749, -960, 286, -16, 0, 210, -70, -210, -159, -147
1750, -960, 285, -16, -70, 210, -140, -210, -156, -151
1751, -961, 285, -15, 0, 70, -70, -204, -156, -139
1752, -960, 285, -15, 0, 140, -70, -201, -154, -144
1753, -961, 285, -14, 0, 140, -70, -202, -160, -138
1754, -959, 284, -15, 0, 140, -70, -207, -154, -141
1755, -961, 285, -15, -70, 140, -70, -207, -144, -145
1756, -961, 285, -15, 0, 140, -70, -210, -156, -141
1757, -961, 285, -15, -70, 140, -70, -205, -153, -145
1758, -960, 285, -15, 0, 140, -70, -196, -165, -145
1759, -960, 285, -16, -70, 210, -70, -207, -160, -144
1760, -960, 286, -14, -70, 140, -140, -202, -157, -144
1761, -961, 286, -14, 0, 140, -70, -207, -162, -145
1762, -960, 285, -15, -70, 140, -70, -205, -154, -144
1763, -960, 285, -16, 0, 140, -70, -208, -166, -147
1764, -960, 286, -15, 0, 140, -70, -202, -154, -145
1765, -960, 285, -15, -70, 140, -140, -196, -151, -145
1766, -960, 285, -15, 0, 210, -70, -202, -154, -147
1767, -961, 285, -15, 70, 210, -70, -208, -153, -138
1768, -960, 285, -15, -70, 140, -70, -201, -156, -148
1769, -960, 286, -15, 0, 140, -70, -208, -156, -148
1770, -960, 285, -15, 0, 70, -70, -202, -150, -139
1771, -960, 286, -15, -70, 210, -70, -199, -153, -145
1772, -960, 286, -15, 0, 140, -140, -193, -153, -147
1773, -961, 286, -14, 0, 210, -140, -208, -151, -138
1774, -960, 285, -15, 0, 140, -70, -199, -162, -147
1775, -960, 285, -14, 0, 140, -70, -211, -150, -136
1776, -960, 284, -15, 0, 140, -70, -210, -156, -145
1777, -960, 285, -15, 0, 140, -70, -204, -159, -151
1778, -960, 285, -14, 70, 140, -140, -207, -162, -150
1779, -960, 285, -15, 0, 140, -70, -199, -159, -144
1780, -960, 284, -15, 0, 280, -140, -204, -157, -145
1781, -960, 286, -15, 0, 140, -70, -202, -154, -153
1782, -961, 284, -16, 0, 210, -140, -208, -159, -147
1783, -960, 285, -15, 70, 210, -70, -204, -157, -148
1784, -960, 285, -15, -70, 140, -140, -204, -159, -142
1785, -961, 285, -14, -70, 70, -70, -201, -162, -139
1786, -960, 285, -16, -70, 140, -70, -202, -156, -144
1787, -960, 285, -15, 0, 140, -70, -205, -162, -154
1788, -960, 286, -15, -70, 70, -70, -205, -160, -147
1789, -961, 285, -15, 0, 140, -70, -205, -156, -139
1790, -961, 285, -15, -70, 210, -70, -196, -156, -153
1791, -960, 285, -15, 0, 140, -70, -202, -154, -144
1792, -961, 285, -15, 0, 140, -140, -205, -156, -142
1793, -960, 285, -15, -70, 140, -140, -199, -153, -138
1794, -960, 285, -16, -70, 140, -70, -205, -156, -141
1795, -961, 285, -15, -70, 210, -70, -199, -147, -147
1796, -960, 285, -15, -70, 70, -140, -201, -153, -162
1797, -960, 285, -15, 0, 210, -70, -204, -148, -145
1798, -960, 285, -14, 0, 210, -70, -204, -159, -151
1799, -961, 286, -15, 0, 140, -140, -205, -157, -148
1800, -961, 285, -15, -70, 140, -140, -205, -151, -141
1801, -961, 285, -15, 0, 140, -70, -199, -157, -147
1802, -960, 285, -15, 70, 210, -140, -205, -151, -145
1803, -960, 285, -15, 0, 140, -70, -202, -157, -144
1804, -960, 285, -15, -70, 70, -140, -207, -150, -147
1805, -961, 286, -15, -70, 140, -140, -207, -154, -141
1806, -960, 286, -15, 0, 140, -140, -199, -153, -148
1807, -960, 285, -15, 0, 140, -140, -204, -163, -147
1808, -960, 286, -15, -70, 140, -140, -210, -160, -144
1809, -961, 285, -15, -70, 140, -70, -208, -157, -142
1810, -961, 285, -15, 0, 140, -70, -207, -163, -138
1811, -960, 285, -16, -70, 140, -70, -210, -156, -145
1812, -961, 285, -15, 0, 140, -70, -208, -154, -144
1813, -960, 285, -15, 0, 140, -140, -201, -150, -148
1814, -961, 286, -15, 0, 210, -140, -190, -150, -148
1815, -961, 285, -14, 0, 140, -140, -195, -147, -145
1816, -960, 286, -15, 0, 140, -70, -202, -147, -145
1817, -960, 285, -15, 0, 140, -140, -208, -151, -150
1818, -961, 285, -15, 0, 210, -140, -205, -153, -142
1819, -960, 285, -15, 0, 140, -70, -204, -154, -141
1820, -960, 286, -15, 0, 210, -70, -208, -150, -144
1821, -960, 286, -15, 0, 210, -140, -204, -156, -138
1822, -961, 285, -15, -70, 140, -140, -210, -157, -141
1823, -960, 285, -14, -70, 140, -140, -204, -151, -150
1824, -961, 285, -14, 0, 210, -140, -199, -157, -141
1825, -960, 285, -15, -70, 210, -70, -199, -154, -142
1826, -960, 285, -15, -70, 140, -70, -201, -151, -141
1827, -960, 285, -15, 0, 210, -140, -199, -165, -142
1828, -960, 285, -15, 70, 140, -140, -196, -145, -147
1829, -961, 285, -15, 0, 140, -70, -204, -154, -144
1830, -960, 285, -15, 0, 210, -70, -205, -154, -144
1831, -961, 285, -15, 0, 140, -140, -202, -147, -144
1832, -961, 285, -15, 0, 210, -70, -199, -150, -144
1833, -961, 285, -15, 0, 140, -70, -207, -157, -145
1834, -960, 286, -15, 0, 140, -70, -201, -153, -142
1835, -961, 285, -16, 0, 70, -140, -208, -153, -138
1836, -960, 285, -14, 0, 140, -70, -202, -160, -141
1837, -961, 285, -15, 0, 140, -70, -207, -156, -148
1838, -960, 285, -14, 0, 210, -70, -201, -162, -138
1839, -960, 285, -15, 70, 70, -70, -205, -147, -141
1840, -960, 285, -15, -70, 210, -70, -207, -165, -148
1841, -960, 285, -15, -70, 70, -70, -210, -156, -142
1842, -961, 285, -14, 70, 70, -140, -207, -156, -138
1843, -960, 285, -14, 0, 210, -140, -205, -154, -136
1844, -961, 285, -14, -70, 210, -70, -199, -160, -151
1845, -961, 285, -15, 0, 210, -70, -201, -154, -136
1846, -960, 285, -15, -70, 140, -70, -205, -156, -145
1847, -961, 286, -15, -70, 140, -70, -205, -157, -147
1848, -960, 285, -15, -70, 70, -70, -210, -151, -139
1849, -960, 286, -15, -70, 140, -70, -205, -159, -145
1850, -960, 285, -15, -70, 140, -140, -208, -145, -145
1851, -960, 285, -15, 0, 210, -70, -207, -151, -138
1852, -960, 285, -14, -70, 140, -70, -204, -159, -145
1853, -960, 285, -15, 0, 140, -70, -205, -157, -142
1854, -960, 285, -15, -70, 70, -70, -207, -157, -151
1855, -961, 285, -15, 0, 140, -70, -207, -148, -142
1856, -961, 286, -14, -70, 140, -70, -201, -154, -145
1857, -961, 285, -15, -70, 70, -70, -201, -153, -141
1858, -960, 286, -15, -70, 140, -70, -198, -153, -145
1859, -960, 285, -15, 0, 140, -70, -196, -159, -147
1860, -961, 285, -14, 0, 210, -70, -195, -153, -145
1861, -961, 286, -14, 0, 140, -70, -204, -157, -145
1862, -961, 285, -15, 0, 210, -140, -208, -151, -156
1863, -960, 285, -15, 0, 140, -70, -202, -165, -145
1864, -960, 285, -15, 0, 210, -70, -204, -156, -151
1865, -960, 285, -15, 0, 210, -140, -214, -160, -150
1866, -960, 285, -15, 0, 210, -70, -204, -162, -145
1867, -960, 285, -15, 0, 210, -70, -204, -150, -147
1868, -961, 286, -15, 0, 210, -70, -199, -153, -141
1869, -961, 286, -14, -70, 140, -70, -204, -157, -139
1870, -960, 285, -15, 0, 140, -70, -211, -147, -148
1871, -960, 285, -14, 0, 210, -70, -195, -159, -141
1872, -960, 285, -15, 0, 210, -70, -202, -154, -142
1873, -961, 285, -14, -70, 210, -70, -201, -165, -153
1874, -960, 286, -16, 0, 210, -70, -198, -162, -150
1875, -960, 286, -16, -70, 210, -70, -214, -157, -142
1876, -961, 285, -15, 0, 210, -70, -205, -153, -153
1877, -960, 285, -14, 0, 140, -70, -204, -151, -132
1878, -960, 285, -15, 0, 140, -70, -208, -150, -147
1879, -960, 285, -14, 70, 140, -140, -199, -153, -150
1880, -960, 286, -16, 0, 140, -70, -213, -157, -150
1881, -960, 285, -15, -70, 210, -70, -202, -159, -132
1882, -961, 285, -14, 0, 210, -140, -204, -153, -156
1883, -960, 285, -15, 0, 140, -70, -207, -154, -145
1884, -960, 286, -14, 70, 210, -70, -204, -162, -156
1885, -960, 285, -16, 0, 210, -70, -211, -154, -148
1886, -961, 286, -14, -70, 140, -70, -199, -148, -144
1887, -961, 285, -15, 0, 210, -70, -204, -162, -135
1888, -961, 285, -14, 0, 140, -70, -196, -154, -142
1889, -960, 285, -15, -70, 210, -70, -202, -156, -145
1890, -961, 286, -15, 0, 210, -70, -207, -154, -142
1891, -961, 285, -15, -70, 210, -140, -202, -160, -154
1892, -960, 286, -16, 0, 140, -140, -201, -162, -145
1893, -960, 285, -14, 0, 140, -140, -208, -156, -145
1894, -960, 285, -15, 0, 140, -70, -205, -160, -138
1895, -960, 285, -14, 0, 210, -70, -202, -159, -133
1896, -961, 285, -15, -70, 210, -140, -205, -160, -141
1897, -960, 286, -14, 0, 70, -70, -199, -147, -142
1898, -960, 285, -15, -70, 210, -70, -202, -148, -145
1899, -960, 286, -15, 0, 140, -70, -202, -154, -142
1900, -960, 284, -15, 0, 210, -70, -201, -162, -142
1901, -961, 285, -15, 0, 140, -140, -204, -153, -145
1902, -960, 285, -15, -70, 70, -70, -199, -162, -145
1903, -961, 285, -15, -70, 140, -70, -198, -159, -144
1904, -960, 285, -15, 0, 210, -140, -208, -159, -139
1905, -960, 285, -16, -70, 140, -70, -202, -157, -144
1906, -960, 285, -15, 0, 210, -70, -195, -147, -139
1907, -960, 285, -14, -70, 140, -70, -202, -156, -142
1908, -960, 285, -14, 0, 140, -70, -204, -151, -141
1909, -961, 285, -15, 0, 210, -70, -202, -145, -151
1910, -960, 285, -15, 0, 140, -70, -199, -148, -153
1911, -960, 285, -14, 0, 140, -70, -199, -157, -129
1912, -961, 285, -15, 0, 140, -70, -202, -162, -148
1913, -960, 286, -14, 0, 140, -70, -201, -160, -138
1914, -961, 285, -16, 0, 210, 0, -207, -156, -151
1915, -960, 285, -15, 0, 70, -70, -202, -153, -138
1916, -960, 285, -15, 0, 140, -70, -204, -151, -144
1917, -961, 285, -15, 0, 210, -70, -202, -157, -133
1918, -960, 286, -15, 0, 140, -140, -201, -153, -147
1919, -961, 285, -14, -70, 140, -70, -204, -166, -148
1920, -960, 285, -15, -70, 210, -70, -202, -159, -156
1921, -960, 285, -14, 0, 140, -70, -207, -159, -147
1922, -960, 285, -15, 0, 210, -140, -205, -156, -148
1923, -961, 284, -15, 0, 140, -70, -205, -162, -135
1924, -960, 286, -15, -70, 140, -70, -198, -156, -141
1925, -960, 285, -15, 0, 210, -70, -189, -157, -138
1926, -960, 285, -16, 0, 140, -70, -207, -150, -147
1927, -960, 285, -15, 0, 140, -70, -204, -154, -144
1928, -961, 285, -15, 0, 140, -70, -205, -163, -148
1929, -961, 286, -15, 0, 140, -70, -202, -162, -144
1930, -960, 285, -14, 0, 70, -70, -196, -159, -147
1931, -960, 285, -15, 0, 210, -70, -198, -160, -148
1932, -960, 285, -14, 0, 140, -70, -204, -153, -144
1933, -960, 286, -14, -70, 210, -70, -208, -157, -150
1934, -960, 285, -15, 0, 140, -70, -210, -157, -145
1935, -960, 285, -15, -70, 140, -70, -204, -154, -145
1936, -961, 285, -15, 0, 140, -140, -210, -150, -147
1937, -960, 286, -15, 70, 140, -70, -201, -157, -150
1938, -961, 286, -15, 0, 140, -70, -198, -153, -141
1939, -960, 286, -15, 70, 140, -70, -204, -153, -153
1940, -960, 285, -14, 0, 140, -70, -202, -160, -148
1941, -961, 285, -15, 0, 140, -140, -201, -160, -150
1942, -960, 286, -15, -70, 140, -70, -207, -154, -144
1943, -961, 285, -14, 0, 140, -70, -205, -148, -145
1944, -960, 285, -14, 0, 140, -70, -199, -151, -135
1945, -961, 285, -15, 0, 140, -140, -199, -156, -145
1946, -960, 285, -14, -70, 210, -70, -201, -157, -141
1947, -960, 285, -15, -70, 210, -70, -202, -162, -141
1948, -960, 285, -14, 0, 210, -70, -205, -157, -151
1949, -961, 285, -14, 0, 210, -70, -205, -160, -139
1950, -960, 285, -15, 0, 140, -70, -205, -150, -147
1951, -960, 286, -15, -70, 140, -70, -208, -150, -148
1952, -960, 286, -15, 0, 210, -70, -213, -157, -142
1953, -960, 285, -15, -70, 140, -70, -202, -157, -144
1954, -960, 285, -14, -70, 210, -70, -205, -163, -144
1955, -961, 285, -15, 0, 210, -70, -216, -157, -136
1956, -960, 285, -15, 0, 210, -70, -202, -151, -145
1957, -960, 285, -15, -70, 210, -70, -204, -156, -148
1958, -961, 285, -15, 0, 210, -70, -198, -157, -142
1959, -960, 285, -15, -70, 140, -70, -214, -145, -145
1960, -961, 285, -15, 0, 140, -140, -210, -162, -136
1961, -960, 285, -15, 0, 140, -140, -196, -151, -141
1962, -960, 285, -16, -70, 140, -70, -208, -160, -151
1963, -960, 286, -14, 0, 140, -140, -205, -156, -141
1964, -959, 285, -14, 70, 140, -140, -202, -153, -142
1965, -960, 285, -15, 0, 140, -70, -207, -147, -151
1966, -960, 285, -15, -70, 140, -70, -199, -165, -145
1967, -960, 285, -14, 0, 140, -140, -198, -163, -144
1968, -960, 285, -14, 0, 140, -70, -201, -166, -144
1969, -960, 285, -11, 0, 420, -140, -213, -151, -144
1970, -963, 287, -17, -70, 350, -70, -204, -157, -144
1971, -960, 286, -19, -70, 70, -70, -210, -166, -154
1972, -961, 283, -13, -70, 140, -140, -198, -154, -139
1973, -962, 284, -6, 140, 140, -140, -208, -151, -138
1974, -964, 287, -18, 70, 1470, -140, -201, -154, -144
1975, -968, 285, -25, 70, -210, -140, -207, -147, -141
1976, -954, 285, -9, 0, 140, -140, -208, -156, -145
1977, -966, 283, -17, 0, 420, -140, -207, -153, -141
1978, -965, 289, -23, -70, 1050, -140, -202, -157, -144
1979, -970, 292, -28, -140, -700, -140, -208, -148, -139
1980, -964, 288, -21, -280, -700, -70, -208, -160, -144
1981, -955, 280, -6, -140, -1120, -70, -205, -153, -138
1982, -945, 276, 11, 70, 490, -70, -202, -154, -139
1983, -968, 290, -24, 210, 1120, -70, -205, -159, -139
1984, -982, 296, -43, 0, 420, 70, -196, -163, -144
1985, -957, 280, -1, 140, -1050, 140, -202, -151, -148
1986, -972, 273, -6, -70, 1680, 280, -205, -166, -145
1987, -1004, 279, -14, 140, 2310, 980, -204, -156, -142
1988, -1055, 276, -23, 140, 1120, 2030, -199, -156, -148
1989, -1102, 273, -24, -140, 1190, 3640, -199, -154, -135
1990, -1155, 269, -52, -350, -420, 5880, -210, -150, -139
1991, -1107, 265, -48, -350, -5320, 8260, -195, -154, -144
1992, -1077, 287, -45, -910, -4270, 12040, -210, -151, -144
1993, -1036, 290, 3, -1470, -2030, 13510, -193, -159, -141
1994, -1077, 277, -49, -1470, -4270, 14840, -198, -145, -153
1995, -1010, 283, 14, -1190, -6930, 15890, -211, -160, -138
1996, -1038, 283, -31, -1680, -4060, 16730, -193, -147, -142
1997, -1016, 299, -18, -1960, -3640, 18480, -207, -148, -148
1998, -1020, 297, -28, -1400, -8330, 19460, -199, -151, -142
1999, -999, 296, 9, -1680, -3920, 20370, -204, -145, -148
2000, -1047, 290, -19, -1330, -3850, 21490, -198, -141, -147
2001, -1112, 289, -22, -1330, -1750, 24710, -204, -144, -141
2002, -1098, 292, -6, -1050, -5180, 26810, -202, -144, -144
2003, -1099, 293, -17, -1330, -2730, 28910, -205, -148, -151
2004, -1098, 299, -19, -1120, -4130, 31010, -202, -139, -147
2005, -1075, 308, -10, -1260, -3080, 32970, -201, -133, -136
2006, -1068, 321, -13, -1540, -3220, 36680, -201, -129, -141
2007, -1075, 326, -21, -1750, -3640, 38570, -205, -123, -132
2008, -1075, 330, -16, -1960, -4690, 40530, -201, -129, -150
2009, -1082, 330, -21, -2170, -5460, 42490, -196, -127, -142
2010, -1078, 334, -21, -2310, -7000, 44520, -201, -114, -136
2011, -1071, 337, -16, -2660, -7630, 48580, -204, -120, -151
2012, -1061, 345, -5, -2800, -7980, 50470, -193, -111, -133
2013, -1056, 349, -8, -2800, -7840, 52430, -201, -109, -136
2014, -1044, 355, 5, -2800, -7770, 54320, -196, -111, -133
2015, -1044, 365, 3, -2730, -8330, 58240, -198, -103, -133
2016, -1035, 370, 0, -2870, -7770, 59990, -204, -103, -135
2017, -1021, 378, -3, -2870, -8820, 61740, -198, -93, -127
2018, -1007, 386, 0, -3010, -8750, 63210, -202, -99, -135
2019, -999, 394, -3, -3010, -9730, 64750, -208, -81, -138
2020, -1001, 411, -6, -3290, -10500, 67550, -208, -73, -133
2021, -976, 424, 18, -3150, -10990, 68810, -193, -76, -133
2022, -989, 434, 14, -3290, -9170, 70000, -199, -73, -127
2023, -982, 461, 30, -2940, -10850, 70980, -199, -67, -121
2024, -1025, 522, 39, -3430, -5670, 71120, -192, -58, -126
2025, -1240, 714, -2, -4130, -2380, 69020, -204, -64, -121
2026, -1203, 701, -65, -3990, -6580, 68180, -208, -49, -126
2027, -985, 614, -23, -4620, -4130, 68460, -204, -49, -121
2028, -869, 504, -82, -5180, -1960, 69860, -204, -33, -135
2029, -813, 458, -59, -6020, 7140, 72730, -208, -39, -118
2030, -833, 481, -24, -5530, 5670, 73080, -202, -33, -105
2031, -849, 504, -6, -5880, 13510, 72940, -199, -24, -109
2032, -876, 521, -9, -5530, 14420, 72380, -202, -24, -111
2033, -844, 526, 13, -5600, 15330, 72100, -199, -22, -108
2034, -770, 519, 45, -5740, 13510, 71470, -205, 0, -100
2035, -749, 535, 64, -5880, 11690, 71050, -205, -7, -102
2036, -760, 561, 76, -6440, 9730, 70630, -208, 3, -99
2037, -780, 596, 49, -6930, 4270, 70420, -207, 6, -106
2038, -707, 610, 85, -6160, 1050, 69090, -207, 7, -105
2039, -665, 579, 119, -3990, -1050, 68040, -216, 6, -91
2040, -680, 606, 133, -2800, 4550, 66710, -219, 21, -93
2041, -758, 588, 8, -1750, 2100, 65450, -219, 36, -93
2042, -627, 542, 62, -350, -7770, 63980, -210, 34, -91
2043, -481, 579, 69, -70, 15820, 60550, -217, 40, -85
2044, -548, 675, 2, -980, 21490, 59080, -220, 30, -85
2045, -554, 730, 18, -980, 15400, 57890, -226, 42, -87
2046, -609, 728, 39, -2660, 19460, 57120, -223, 43, -87
2047, -723, 719, -8, -3570, 9450, 56490, -214, 42, -76
2048, -688, 685, 30, -4410, -1610, 55160, -223, 58, -75
2049, -701, 635, -20, -3990, -6440, 53970, -220, 48, -73
2050, -588, 636, 46, -3220, -9870, 52640, -226, 60, -73
2051, -558, 669, 9, -3780, -2310, 51520, -229, 69, -66
2052, -522, 705, 8, -3220, -2450, 49490, -231, 66, -66
2053, -538, 741, 15, -3290, 700, 48300, -220, 75, -69
2054, -564, 747, 15, -2940, -2590, 47250, -225, 81, -69
2055, -628, 766, 32, -3780, 910, 46550, -228, 75, -73
2056, -704, 760, -64, -4340, -7630, 46270, -231, 84, -66
2057, -580, 723, 9, -5180, -6930, 44590, -229, 76, -67
2058, -554, 714, 2, -3990, -14070, 43610, -234, 97, -64
2059, -479, 736, 55, -3990, -10430, 42770, -231, 90, -67
2060, -516, 750, 9, -3990, -5390, 41930, -235, 105, -67
2061, -500, 760, 26, -2800, -10710, 41160, -238, 91, -70
2062, -549, 761, 17, -2380, 2240, 39550, -237, 97, -63
2063, -552, 772, 40, -1610, -1050, 39130, -238, 93, -76
2064, -574, 786, 45, -2170, 4620, 38920, -238, 111, -55
2065, -632, 794, 3, -2310, 1750, 38850, -238, 112, -57
2066, -599, 805, 47, -2940, 1260, 38780, -246, 117, -70
2067, -626, 803, 17, -2730, -4410, 38850, -241, 120, -60
2068, -582, 804, 55, -2940, -5530, 39060, -235, 123, -66
2069, -608, 800, 25, -3290, -3570, 39340, -243, 127, -61
2070, -606, 805, 32, -3080, -8260, 39690, -231, 117, -66
2071, -605, 818, 16, -3710, -8960, 40250, -244, 124, -60
2072, -573, 825, 37, -3710, -10640, 40530, -250, 126, -61
2073, -577, 825, 28, -3990, -8610, 40810, -250, 132, -63
2074, -572, 822, 22, -3850, -11270, 41020, -249, 135, -67
2075, -536, 820, 44, -3570, -10640, 41160, -246, 144, -58
2076, -526, 817, 36, -2940, -7630, 41650, -258, 136, -57
2077, -518, 823, 47, -2800, -4830, 41930, -249, 139, -60
2078, -533, 831, 36, -2590, -2590, 42280, -256, 150, -58
2079, -526, 837, 42, -2170, -2310, 42560, -262, 141, -52
2080, -515, 843, 50, -2240, 2660, 43120, -261, 162, -57
2081, -544, 859, 35, -2240, 910, 43470, -255, 154, -51
2082, -532, 860, 39, -2450, -910, 43820, -261, 159, -52
2083, -519, 856, 43, -2590, -1470, 44100, -262, 165, -57
2084, -501, 849, 48, -2590, -2520, 44310, -265, 163, -51
2085, -487, 862, 45, -2800, -3290, 44660, -265, 174, -46
2086, -470, 866, 50, -2800, -4340, 44800, -265, 172, -43
2087, -457, 864, 56, -2800, -3500, 44870, -277, 169, -52
2088, -450, 865, 49, -2800, -3640, 44870, -265, 175, -55
2089, -429, 868, 58, -2730, -4270, 44870, -271, 175, -51
2090, -438, 872, 48, -2870, -2520, 44800, -273, 178, -39
2091, -422, 879, 60, -2800, -4130, 44800, -273, 178, -54
2092, -417, 884, 62, -3080, -2870, 44660, -276, 178, -48
2093, -416, 884, 42, -3220, -4970, 44450, -270, 189, -45
2094, -383, 889, 67, -3570, -5530, 43960, -277, 193, -37
2095, -368, 886, 48, -3220, -8540, 43540, -282, 195, -39
2096, -323, 887, 75, -3010, -8610, 43120, -280, 193, -48
2097, -324, 889, 71, -3150, -3710, 42630, -286, 207, -43
2098, -341, 889, 52, -2870, -4760, 42280, -288, 207, -45
2099, -346, 905, 56, -3010, -2660, 41720, -289, 208, -36
2100, -351, 908, 53, -2800, -5460, 41440, -297, 210, -43
2101, -341, 910, 67, -3080, -5390, 41160, -292, 213, -34
2102, -349, 913, 52, -3290, -6020, 40880, -289, 213, -42
2103, -335, 915, 59, -3290, -9240, 40670, -285, 214, -31
2104, -313, 912, 51, -3360, -10710, 40110, -294, 214, -43
2105, -269, 911, 73, -2940, -11760, 39690, -298, 223, -40
2106, -251, 912, 77, -2730, -6930, 39340, -304, 225, -45
2107, -260, 915, 66, -2450, -4340, 38990, -304, 223, -39
2108, -266, 933, 66, -2310, -140, 38640, -306, 231, -37
2109, -331, 939, 54, -2590, -1120, 38780, -306, 225, -37
2110, -350, 941, 55, -2870, -3990, 38990, -303, 241, -49
2111, -356, 937, 59, -3080, -6300, 39410, -312, 238, -36
2112, -342, 929, 61, -3080, -8400, 39830, -306, 240, -37
2113, -259, 924, 88, -1960, -4550, 40390, -315, 240, -36
2114, -228, 933, 86, -1190, -280, 40460, -324, 243, -39
2115, -202, 946, 90, -490, 4270, 40320, -313, 250, -34
2116, -191, 954, 85, -350, 9310, 40110, -310, 241, -36
2117, -185, 951, 78, -210, 11830, 39760, -321, 252, -33
2118, -157, 935, 93, -140, 16800, 38850, -321, 241, -37
2119, -165, 933, 87, -210, 18690, 38290, -315, 255, -31
2120, -174, 937, 84, -210, 18550, 37660, -331, 253, -25
2121, -173, 943, 80, -350, 17010, 36960, -331, 256, -30
2122, -154, 951, 83, -630, 13790, 35350, -324, 265, -21
2123, -145, 952, 84, -700, 12530, 34580, -318, 261, -18
2124, -145, 957, 81, -910, 12110, 33810, -331, 264, -28
2125, -144, 962, 74, -1120, 11060, 33180, -343, 267, -15
2126, -134, 964, 76, -1190, 9660, 32410, -330, 271, -25
2127, -122, 961, 74, -1750, 8750, 30590, -333, 267, -27
2128, -123, 960, 74, -2030, 6510, 29610, -333, 259, -16
2129, -117, 960, 71, -2310, 3220, 28700, -340, 271, -19
2130, -106, 958, 77, -2520, -280, 27720, -337, 267, -15
2131, -101, 955, 74, -2940, -2310, 26740, -336, 276, -18
2132, -68, 964, 76, -2870, -7560, 24710, -336, 277, -22
2133, -41, 966, 75, -2590, -7350, 23520, -342, 277, -24
2134, -33, 967, 93, -2380, -4270, 22330, -342, 279, -18
2135, -52, 965, 72, -2520, -350, 21490, -342, 271, -15
2136, -85, 973, 71, -2310, -2100, 20090, -345, 282, -27
2137, -99, 972, 76, -2310, -2170, 19390, -340, 265, -9
2138, -103, 968, 69, -2170, -2590, 18830, -343, 280, -13
2139, -96, 973, 84, -1820, -3360, 18270, -348, 283, -12
2140, -97, 976, 79, -1890, -980, 17920, -346, 279, -25
2141, -89, 979, 79, -1330, -2310, 17290, -354, 285, -18
2142, -73, 980, 90, -1330, -490, 16800, -354, 285, -18
2143, -68, 976, 84, -1260, 1820, 16310, -346, 277, -16
2144, -61, 975, 86, -980, 1680, 15680, -358, 286, -10
2145, -40, 974, 93, -700, 1610, 14980, -360, 289, -27
2146, -25, 969, 97, -350, 5320, 13440, -351, 292, -19
2147, -23, 973, 103, -70, 5390, 12600, -351, 289, -22
2148, -24, 977, 101, -70, 7000, 11830, -340, 286, -10
2149, -31, 978, 101, 0, 7560, 10990, -349, 291, -10
2150, -64, 980, 105, 0, 10010, 9800, -349, 291, -10
2151, -102, 985, 88, -280, 9310, 9450, -354, 291, -13
2152, -122, 987, 89, -420, 4760, 9310, -349, 291, -16
2153, -136, 986, 105, -770, 3780, 9380, -348, 289, -16
2154, -178, 989, 85, -1190, 3990, 9590, -357, 292, -13
2155, -146, 1006, 92, -1260, -7000, 10010, -357, 280, -18
2156, -127, 1000, 87, -1820, -4550, 10080, -357, 286, -10
2157, -121, 993, 70, -1890, -6790, 10150, -357, 292, -16
2158, -92, 991, 84, -1820, -9450, 10220, -361, 289, -15
2159, -88, 991, 90, -2310, -6300, 10360, -364, 295, -7
2160, -145, 992, 59, -2520, -9940, 10920, -355, 300, -10
2161, -142, 997, 72, -2730, -11410, 11270, -363, 294, -18
2162, -152, 1001, 60, -2940, -10710, 11620, -358, 288, -10
2163, -148, 998, 52, -2800, -13860, 11970, -354, 294, -9
2164, -91, 988, 76, -2520, -12040, 12880, -352, 300, -15
2165, -93, 988, 70, -2310, -8260, 13300, -358, 306, -16
2166, -99, 991, 64, -2030, -6440, 13720, -360, 309, -15
2167, -102, 999, 67, -1820, -4900, 14210, -364, 301, -18
2168, -108, 1001, 69, -1890, -2660, 14630, -366, 303, -12
2169, -125, 996, 65, -1820, -2590, 15680, -361, 304, -15
2170, -125, 994, 71, -1960, -2940, 16240, -369, 297, -15
2171, -127, 993, 67, -2030, -3430, 16660, -357, 303, -13
2172, -121, 993, 66, -2100, -5180, 17080, -369, 306, -10
2173, -106, 994, 68, -2240, -7000, 17570, -369, 306, -12
2174, -75, 993, 69, -2660, -9730, 17780, -366, 304, -13
2175, -59, 986, 73, -2800, -10570, 17850, -361, 306, -15
2176, -52, 983, 81, -2870, -10080, 17990, -370, 303, -15
2177, -63, 986, 75, -2940, -9100, 18200, -382, 300, -12
2178, -64, 992, 76, -2660, -11690, 18550, -366, 303, -13
2179, -55, 992, 84, -2730, -10640, 18620, -378, 306, -19
2180, -51, 991, 80, -2590, -10010, 18760, -375, 303, -18
2181, -37, 991, 84, -2450, -10500, 18900, -382, 312, -12
2182, -23, 990, 92, -2380, -9520, 19040, -372, 318, -16
2183, -22, 987, 91, -2310, -6440, 19110, -373, 309, -27
2184, -17, 989, 93, -2100, -6790, 19110, -384, 312, -21
2185, -3, 990, 99, -2030, -6860, 18900, -381, 309, -15
2186, 9, 987, 101, -2030, -6090, 18690, -378, 318, -19
2187, 19, 980, 104, -1890, -5670, 18060, -385, 322, -18
2188, 25, 979, 109, -1890, -5110, 17850, -387, 325, -15
2189, 13, 985, 107, -2030, -4830, 17640, -385, 319, -12
2190, -2, 987, 104, -2100, -5600, 17500, -381, 318, -21
2191, -16, 990, 105, -2310, -7000, 17430, -388, 316, -22
2192, -21, 991, 102, -2520, -10290, 17430, -391, 316, -22
2193, -2, 989, 103, -2380, -12250, 17360, -390, 324, -19
2194, 33, 982, 108, -2240, -13020, 17150, -384, 318, -22
2195, 75, 973, 115, -1820, -11690, 16870, -385, 321, -18
2196, 110, 968, 121, -1400, -8330, 16310, -384, 321, -16
2197, 148, 971, 125, -210, 210, 14980, -402, 333, -16
2198, 143, 976, 124, 70, 5320, 14210, -394, 327, -16
2199, 124, 980, 121, 280, 7910, 13300, -394, 324, -9
2200, 110, 981, 119, 420, 7980, 12460, -382, 321, -13
2201, 109, 980, 128, 700, 8470, 10640, -396, 328, -4
2202, 95, 982, 131, 700, 8890, 9940, -393, 318, -13
2203, 83, 989, 128, 700, 7560, 9240, -393, 325, -4
2204, 73, 997, 128, 350, 6160, 8540, -393, 327, -15
2205, 59, 1000, 124, -210, 4830, 7840, -396, 328, -7
2206, 46, 990, 117, -1050, -2940, 6790, -385, 318, -13
2207, 51, 986, 124, -1330, -5180, 6300, -393, 330, -9
2208, 41, 985, 117, -1750, -5740, 6020, -403, 325, -10
2209, 22, 988, 108, -1890, -7630, 6020, -397, 319, -15
2210, 12, 994, 103, -1960, -9870, 6020, -402, 328, -13
2211, 5, 991, 95, -1960, -10780, 6650, -397, 325, -7
2212, 11, 986, 99, -1540, -9800, 7210, -397, 331, -24
2213, 19, 988, 104, -1120, -6300, 7840, -394, 327, -7
2214, 16, 996, 103, -630, -1470, 8540, -402, 328, -22
2215, 2, 1001, 99, -140, 5670, 10010, -402, 328, -12
2216, -38, 1006, 80, -140, 4480, 10710, -402, 336, -18
2217, -27, 1004, 83, -350, 1470, 11340, -400, 334, -21
2218, -5, 997, 90, -560, -140, 11760, -406, 325, -19
2219, 9, 994, 88, -980, -1120, 12110, -400, 328, -13
2220, 49, 996, 90, -1260, -5390, 12530, -399, 330, -7
2221, 61, 994, 92, -1540, -4200, 12670, -405, 330, -6
2222, 60, 991, 85, -1540, -3500, 12600, -399, 334, -10
2223, 64, 990, 84, -1400, -4480, 12600, -411, 325, -10
2224, 71, 987, 91, -1330, -4060, 12530, -402, 336, -13
2225, 72, 983, 82, -1260, -3920, 12320, -406, 337, -15
2226, 91, 982, 87, -1050, -5460, 12110, -403, 327, -13
2227, 116, 980, 94, -910, -4480, 11830, -411, 334, -7
2228, 139, 977, 93, -630, -3080, 11410, -411, 342, -18
2229, 167, 973, 102, -70, 1400, 10010, -409, 336, -7
2230, 171, 974, 109, -140, 5460, 9240, -412, 333, -7
2231, 153, 978, 94, -70, 4830, 8540, -402, 342, -13
2232, 152, 978, 103, 70, 2380, 7700, -403, 340, -16
2233, 158, 973, 118, 140, 2800, 7000, -412, 334, -19
2234, 135, 975, 113, 420, 5180, 5600, -408, 340, -18
2235, 131, 981, 116, 630, 4060, 5110, -414, 339, -10
2236, 131, 986, 123, 490, 4410, 4620, -405, 330, -16
2237, 120, 988, 119, 350, 5530, 4130, -403, 334, -12
2238, 112, 991, 113, 210, 4200, 3640, -414, 339, -4
2239, 128, 987, 121, 0, 1820, 2520, -417, 340, -15
2240, 127, 980, 118, -280, 1260, 2030, -403, 334, -9
2241, 122, 979, 115, -280, -280, 1540, -408, 339, -6
2242, 113, 984, 115, -560, -1470, 1120, -409, 330, -12
2243, 94, 989, 101, -1050, -4340, 630, -412, 336, -12
2244, 72, 991, 101, -1120, -6580, 490, -415, 345, -12
2245, 74, 990, 104, -1190, -6930, 560, -414, 333, -22
2246, 69, 988, 102, -1190, -6230, 770, -400, 336, -12
2247, 64, 990, 99, -980, -5600, 1050, -414, 340, -10
2248, 52, 997, 92, -840, -3640, 1890, -411, 334, -6
2249, 54, 997, 88, -700, -3640, 2240, -405, 331, -7
2250, 67, 995, 92, -560, -3430, 2520, -421, 339, -10
2251, 84, 990, 94, -490, -2380, 2660, -415, 340, -12
2252, 101, 984, 96, -280, -1470, 2800, -418, 348, -13
2253, 124, 978, 107, 350, 2030, 2870, -412, 343, -13
2254, 125, 979, 108, 560, 4340, 2730, -417, 339, -15
2255, 125, 982, 106, 910, 5390, 2450, -415, 333, -24
2256, 134, 983, 111, 1120, 5460, 2100, -406, 343, -10
2257, 148, 982, 121, 1050, 7630, 1120, -420, 349, -10
2258, 142, 982, 118, 980, 7840, 490, -409, 339, -9
2259, 133, 983, 117, 700, 6020, -70, -420, 336, -10
2260, 124, 984, 121, 420, 4480, -560, -420, 334, -4
2261, 107, 984, 119, 140, 3430, -1050, -408, 342, -10
2262, 89, 991, 107, -350, -3570, -1750, -411, 343, -10
2263, 101, 989, 113, -630, -5600, -2100, -417, 345, -3
2264, 107, 984, 110, -840, -5670, -2380, -421, 340, -25
2265, 114, 980, 103, -770, -6160, -2590, -411, 342, -12
2266, 124, 981, 110, -490, -5810, -2730, -411, 348, -19
2267, 115, 982, 105, -70, 210, -2940, -414, 337, -21
2268, 101, 985, 103, 280, 1540, -2940, -421, 337, -4
2269, 84, 989, 103, 350, 2800, -2870, -412, 339, -15
2270, 68, 989, 99, 420, 2940, -2660, -418, 342, -13
2271, 59, 992, 101, 420, 700, -2310, -406, 336, -4
2272, 68, 994, 106, 280, 840, -2170, -415, 339, -1
2273, 71, 993, 103, 210, 1190, -2030, -418, 336, -12
2274, 71, 990, 98, 70, 560, -1960, -406, 343, -7
2275, 82, 988, 97, 0, -1540, -1960, -411, 328, -9
2276, 103, 986, 102, -210, -1260, -2100, -414, 343, -13
2277, 103, 987, 98, -140, -560, -2240, -417, 339, -18
2278, 101, 989, 97, -140, -980, -2450, -411, 343, -15
2279, 102, 989, 98, -70, -910, -2520, -411, 336, -9
2280, 103, 987, 97, -70, -700, -2730, -414, 337, -18
2281, 111, 982, 106, 210, 70, -3220, -414, 333, -10
2282, 105, 985, 105, 280, 1680, -3290, -406, 336, -10
2283, 91, 978, 104, 210, 2170, -3430, -408, 339, -3
2284, 121, 977, 84, 700, -700, -3710, -414, 343, -18
2285, 91, 990, 78, -70, 8960, -3990, -402, 334, -13
2286, 54, 979, 94, 280, 1890, -4060, -418, 343, -12
2287, 79, 966, 101, 560, -1470, -4130, -414, 337, -6
2288, 87, 988, 122, 630, 1120, -4410, -408, 340, -10
2289, 79, 1004, 90, 420, 3080, -4690, -414, 342, -10
2290, 100, 982, 93, 770, -6930, -4550, -409, 331, -13
2291, 129, 993, 150, 420, -1330, -4620, -406, 339, -10
2292, 103, 988, 100, -70, 7140, -4760, -402, 333, -9
2293, 40, 985, 92, -70, 7070, -4690, -405, 331, -16
2294, 44, 979, 93, 490, -840, -4620, -408, 325, -12
2295, 52, 1000, 99, 210, 1470, -4410, -412, 336, -15
2296, 53, 992, 100, 420, -490, -4200, -403, 345, -15
2297, 85, 977, 112, 840, -2520, -4200, -405, 337, -13
2298, 91, 982, 122, 560, 3290, -4060, -402, 331, -9
2299, 74, 995, 105, 700, 3710, -4060, -408, 333, -16
2300, 77, 990, 117, 770, 2800, -4200, -408, 340, -15
2301, 60, 987, 114, 490, 5250, -4130, -412, 343, -9
2302, 43, 987, 102, 630, 1680, -4200, -406, 328, -13
2303, 45, 987, 108, 420, -280, -4130, -406, 340, -13
2304, 57, 990, 107, 210, -1680, -4200, -409, 334, -18
2305, 67, 991, 107, 210, -3920, -4200, -406, 336, -6
2306, 76, 994, 111, 70, -2520, -4130, -406, 336, -19
2307, 73, 994, 112, 0, -1400, -4200, -402, 339, -12
2308, 59, 990, 100, -70, 140, -4130, -405, 336, -12
2309, 69, 990, 109, 210, -630, -4060, -409, 337, -9
2310, 60, 990, 100, 140, 1050, -3920, -403, 331, -21
2311, 50, 991, 90, 210, 490, -3850, -406, 331, -12
2312, 55, 993, 97, 350, -980, -3780, -405, 336, -18
2313, 53, 988, 92, 210, 630, -3640, -403, 333, -24
2314, 57, 986, 98, 420, -350, -3570, -399, 340, -9
2315, 51, 991, 107, 350, 1540, -3430, -402, 334, -13
2316, 23, 996, 93, 140, 3010, -3220, -405, 336, -16
2317, 11, 1000, 82, 210, -560, -2870, -414, 336, -4
2318, 31, 997, 102, 0, -350, -2240, -402, 327, -12
2319, 17, 990, 93, -280, 840, -1960, -408, 334, -18
2320, 19, 990, 89, 140, -2240, -1610, -408, 334, -19
2321, 36, 992, 107, 140, -2660, -1260, -405, 325, -16
2322, 40, 994, 105, 70, 350, -630, -409, 333, -13
2323, 30, 993, 102, 210, 70, -420, -402, 331, -19
2324, 18, 992, 102, -70, 910, -70, -400, 327, -18
2325, 8, 996, 95, -140, -560, 280, -411, 328, -9
2326, 8, 1006, 100, -280, -2240, 770, -400, 324, -13
2327, -30, 991, 89, -910, -3570, 1680, -397, 328, -16
2328, 22, 998, 78, -210, -13230, 1890, -399, 331, -13
2329, 139, 1011, 105, 140, -12880, 2030, -402, 334, -7
2330, 188, 1007, 115, -280, 2730, 2240, -412, 339, -19
2331, 169, 1012, 47, -420, 15330, 2100, -405, 331, -25
2332, 33, 915, 69, -630, 17850, 980, -397, 328, -12
2333, -26, 941, 59, 280, 4620, 840, -406, 346, -13
2334, 38, 991, 47, 980, -8330, 420, -403, 331, -12
2335, 113, 1008, 108, 840, -10570, -630, -399, 336, -18
2336, 220, 978, 49, 770, -10640, -3920, -406, 330, -13
2337, 427, 997, 85, 140, 980, -5950, -403, 342, -6
2338, 359, 967, 129, -980, 18760, -7910, -408, 337, -10
2339, 228, 914, 61, -630, 22610, -9730, -402, 339, -7
2340, 130, 930, 97, 1050, 11550, -11550, -409, 325, -15
2341, 117, 976, 162, 2730, 6300, -15050, -399, 333, -13
2342, 79, 978, 90, 2380, 3080, -16450, -397, 324, -21
2343, 84, 1005, 96, 1960, -9380, -17290, -409, 327, -16
2344, 160, 1017, 119, 910, -16030, -18200, -403, 328, -19
2345, 164, 1013, 156, -980, -5040, -18970, -408, 330, -12
2346, 63, 969, 128, -1260, -3570, -20510, -399, 321, -13
2347, 64, 966, 130, -770, -6790, -21070, -402, 328, -22
2348, 54, 965, 147, -350, -4060, -21210, -399, 321, -22
2349, 46, 952, 122, 560, -5670, -21560, -396, 327, -16
2350, 37, 964, 130, 1260, -7000, -22050, -391, 322, -30
2351, 51, 1008, 108, 770, -5250, -22330, -399, 327, -18
2352, 60, 1006, 99, 420, -5180, -22750, -385, 321, -19
2353, 55, 991, 111, -140, -2380, -22960, -390, 315, -21
2354, 60, 975, 108, 140, -3150, -23310, -387, 322, -25
2355, 40, 952, 119, 980, 1610, -23870, -378, 316, -25
2356, -7, 981, 114, 1050, 5250, -23870, -388, 312, -18
2357, -35, 989, 82, 1330, 560, -23940, -385, 319, -18
2358, -86, 1026, 89, 350, 2030, -23520, -388, 316, -30
2359, -106, 1024, 58, -140, -9170, -23800, -385, 315, -22
2360, -91, 995, 65, -2100, -19810, -23450, -393, 313, -27
2361, -60, 983, 72, -2450, -23030, -23100, -375, 318, -21
2362, -17, 974, 110, -2100, -26320, -23310, -382, 312, -27
2363, -27, 968, 96, -2590, -17220, -23030, -387, 316, -24
2364, -31, 972, 89, -1540, -16240, -22330, -376, 319, -28
2365, -95, 995, 92, -1960, -12180, -21700, -376, 300, -21
2366, -265, 1070, 65, -4410, -5740, -20160, -376, 306, -39
2367, -328, 1045, -62, -4480, -29890, -18200, -369, 304, -39
2368, -170, 1022, 158, -3080, -43890, -16310, -375, 309, -42
2369, -411, 963, -9, -3990, 1400, -10290, -376, 306, -40
2370, -355, 1011, 28, 70, -19880, -6090, -376, 309, -37
2371, -270, 1052, 198, 560, 4270, -1960, -378, 304, -39
2372, -428, 1006, 46, 280, 30660, 1820, -373, 313, -36
2373, -423, 995, 39, 4200, 4060, 5110, -378, 307, -37
2374, -196, 1024, 145, 3500, 26180, 9940, -372, 309, -33
2375, -214, 985, 57, 4060, 17290, 11760, -366, 306, -34
2376, -88, 977, 158, 4900, 4200, 13160, -378, 310, -36
2377, -17, 1009, 200, 3150, 20090, 14070, -378, 313, -34
2378, -99, 1031, 119, 1820, 17570, 15330, -382, 310, -39
2379, -94, 1001, 177, 1400, 11200, 15820, -379, 309, -30
2380, -107, 990, 165, 280, 16870, 15960, -369, 316, -24
2381, -170, 992, 110, -140, 11200, 16170, -369, 310, -30
2382, -153, 995, 103, 140, -3640, 16380, -376, 318, -33
2383, -58, 982, 113, -980, -7840, 16730, -375, 315, -30
2384, -19, 994, 103, -980, -11270, 16800, -384, 309, -31
2385, 36, 1003, 110, -1050, -11410, 16730, -378, 309, -22
2386, 55, 991, 114, -1540, -5740, 16660, -378, 316, -37
2387, 47, 978, 95, -1470, -3290, 16310, -381, 316, -28
2388, 53, 982, 102, -560, -1540, 15120, -381, 312, -25
2389, 46, 980, 93, -420, 1120, 14560, -390, 318, -33
2390, 41, 977, 80, -70, 0, 14000, -388, 315, -25
2391, 57, 979, 83, 210, -2100, 13510, -385, 319, -30
2392, 77, 994, 88, -140, 3220, 12390, -382, 316, -33
2393, 49, 993, 74, -280, 3220, 11830, -385, 319, -30
2394, 41, 995, 74, -490, 1050, 11200, -394, 331, -28
2395, 48, 993, 81, -560, -700, 10500, -385, 321, -30
2396, 48, 990, 81, -700, -840, 9870, -390, 322, -28
2397, 67, 986, 75, -560, -5110, 8470, -394, 315, -22
2398, 91, 987, 84, -560, -5390, 7700, -388, 322, -28
2399, 105, 986, 87, -630, -3150, 7000, -394, 319, -34
2400, 105, 978, 87, -560, -1260, 6230, -390, 336, -24
2401, 101, 981, 89, -420, -560, 5390, -390, 325, -28
2402, 94, 984, 97, -280, 420, 3710, -387, 328, -30
2403, 87, 979, 104, -210, 280, 2870, -394, 322, -18
2404, 79, 983, 105, -140, 700, 2100, -388, 321, -15
2405, 67, 986, 101, -350, -280, 1330, -394, 328, -22
2406, 70, 987, 112, -490, -3150, 140, -387, 318, -24
2407, 67, 986, 113, -560, -2030, -350, -390, 324, -28
2408, 60, 985, 110, -560, -2100, -980, -393, 322, -28
2409, 64, 986, 112, -350, -2870, -1400, -385, 322, -31
2410, 71, 986, 118, -210, -2030, -1890, -393, 321, -27
2411, 74, 984, 115, 140, -280, -3080, -388, 325, -21
2412, 78, 985, 119, 280, 350, -3710, -391, 318, -25
2413, 75, 984, 118, 210, 1470, -4270, -391, 330, -19
2414, 62, 983, 112, 0, 1680, -4830, -385, 309, -34
2415, 50, 988, 106, -210, -70, -5320, -391, 328, -24
2416, 43, 992, 109, -490, -2380, -6370, -388, 322, -30
2417, 43, 986, 104, -560, -3080, -6930, -384, 315, -27
2418, 49, 985, 102, -420, -4760, -7560, -388, 328, -27
2419, 62, 982, 106, -350, -5040, -7980, -378, 321, -31
2420, 62, 982, 99, -280, -2940, -8960, -394, 325, -28
2421, 67, 985, 99, 0, -2800, -9450, -393, 316, -27
2422, 72, 985, 107, 210, -910, -10010, -394, 324, -37
2423, 68, 984, 106, 280, 1820, -10570, -388, 324, -39
2424, 55, 981, 104, 420, 3080, -10990, -381, 316, -34
2425, 38, 983, 108, 700, 3570, -11900, -390, 313, -30
2426, 30, 985, 108, 840, 3430, -12320, -388, 310, -25
2427, 25, 984, 108, 770, 3080, -12740, -385, 319, -39
2428, 23, 986, 113, 910, 3080, -13090, -385, 312, -24
2429, 15, 989, 111, 700, 3640, -13440, -390, 304, -37
2430, -3, 991, 106, 700, 2940, -13720, -375, 313, -28
2431, -9, 991, 107, 560, 3290, -13860, -376, 319, -31
2432, -16, 989, 104, 630, 4060, -13860, -378, 315, -37
2433, -22, 987, 98, 840, 4970, -13650, -385, 322, -28
2434, -39, 991, 101, 1470, 12040, -12460, -375, 312, -27
2435, -77, 999, 91, 1890, 18060, -11410, -384, 309, -33
2436, -123, 1007, 82, 2380, 22330, -10010, -382, 306, -33
2437, -170, 1013, 83, 2800, 25620, -8540, -384, 316, -24
2438, -226, 1013, 79, 2800, 26740, -6930, -384, 313, -34
2439, -297, 1011, 70, 2100, 14000, -3780, -381, 312, -27
2440, -294, 1023, 76, 1190, 4130, -2240, -378, 307, -28
2441, -269, 1030, 64, 0, -5110, -770, -369, 313, -33
2442, -206, 1025, 76, -770, -15190, 490, -375, 310, -31
2443, -123, 1011, 100, -1470, -17500, 1540, -387, 309, -28
2444, -46, 982, 103, -1680, -12740, 2870, -378, 303, -30
2445, -23, 985, 120, -1190, -12810, 3220, -375, 312, -34
2446, -8, 986, 117, -980, -8820, 3360, -370, 304, -31
2447, -17, 994, 112, -770, -6020, 3360, -373, 313, -19
2448, -4, 995, 112, -490, -5740, 3220, -388, 312, -30
2449, 2, 990, 106, -700, -3220, 3150, -390, 313, -31
2450, -1, 987, 105, -630, -2520, 3080, -384, 322, -37
2451, 3, 985, 102, -350, -2660, 3010, -376, 312, -28
2452, 4, 987, 110, -210, -1120, 2730, -376, 312, -30
2453, -2, 987, 98, 70, 70, 2100, -375, 307, -31
2454, 1, 990, 95, 210, -280, 1820, -369, 310, -40
2455, -1, 990, 100, 0, 700, 1680, -387, 309, -30
2456, -8, 980, 110, 210, 560, 1610, -370, 313, -37
2457, -11, 986, 107, 560, 1680, 1470, -382, 315, -27
2458, -35, 1025, 71, -280, 3220, 1470, -387, 309, -27
2459, -42, 1001, 74, -630, 1260, 1610, -381, 309, -28
2460, -43, 970, 91, -630, 1400, 1750, -379, 307, -25
2461, -47, 974, 90, -280, 1820, 1960, -375, 310, -31
2462, -53, 1006, 85, 700, 3570, 2730, -376, 309, -36
2463, -63, 997, 87, 700, 5950, 3220, -385, 306, -25
2464, -80, 1002, 78, 560, 6160, 3780, -381, 316, -28
2465, -91, 1013, 72, 280, 5110, 4480, -378, 322, -18
2466, -94, 1012, 81, -140, 3220, 5040, -372, 309, -25
2467, -83, 992, 94, -350, 770, 6020, -382, 318, -22
2468, -62, 993, 99, 0, -140, 6510, -385, 316, -27
2469, -45, 992, 106, 140, 490, 6930, -385, 310, -31
2470, -39, 988, 104, 140, 2170, 7350, -381, 315, -25
2471, -43, 995, 101, 210, 1750, 7910, -384, 312, -25
2472, -38, 1004, 102, -280, 630, 7980, -379, 315, -30
2473, -28, 993, 105, -560, -420, 8050, -375, 321, -33
2474, -14, 986, 111, -560, -1540, 8050, -379, 324, -31
2475, 1, 985, 114, -420, -1540, 8050, -382, 324, -18
2476, 16, 985, 113, -140, 630, 7770, -379, 312, -33
2477, 15, 988, 112, 0, 1540, 7700, -379, 315, -24
2478, 15, 993, 106, 0, 1750, 7420, -385, 325, -27
2479, 21, 994, 95, -140, 1120, 7140, -390, 315, -43
2480, 70, 979, 64, -420, -3500, 6230, -391, 321, -25
