Time [mS], AccX [mg],AccY [mg],AccZ [mg],GyroX [mdps],GyroY [mdps],GyroZ [mdps],MagX [mgauss],MagY [mgauss],MagZ [mgauss]
240, 89, -989, 151, -4970, -420, -7980, -394, -535, -522
241, 69, -1008, 116, -5670, 1960, -6860, -396, -528, -517
242, 70, -991, 122, -2870, -1260, -4970, -394, -534, -511
243, 54, -980, 106, -1260, -2380, -2310, -393, -529, -520
244, 48, -983, 127, 420, -4130, -1890, -397, -526, -513
245, 42, -988, 127, 700, -4200, -2940, -394, -526, -517
246, 61, -993, 147, -2870, 3010, -4760, -397, -531, -510
247, 32, -1000, 107, -1680, 630, -3570, -402, -537, -513
248, 39, -1006, 117, 420, -4340, -490, -394, -528, -510
249, 40, -1001, 121, 1260, -7770, 3500, -394, -528, -517
250, 44, -984, 133, 2100, -10080, 6930, -397, -540, -517
251, 47, -975, 160, 2240, -11480, 9520, -405, -534, -508
252, 32, -980, 148, 140, -7420, 8330, -399, -543, -508
253, 35, -984, 147, -490, -6020, 6790, -399, -526, -517
254, 40, -993, 146, -1050, -4620, 5740, -400, -537, -519
255, 29, -998, 128, 490, -8400, 4970, -399, -528, -505
256, 36, -986, 132, 1820, -11900, 4970, -390, -537, -511
257, 48, -977, 136, 3150, -14700, 5530, -391, -526, -514
258, 53, -980, 142, 3850, -15120, 6370, -390, -540, -513
259, 75, -977, 172, -630, -4480, 7910, -403, -529, -504
260, 140, -986, 192, -6090, 7350, 10920, -391, -537, -514
261, 197, -990, 193, -11340, 18760, 17640, -397, -538, -513
262, 203, -974, 207, -18410, 34370, 26040, -399, -538, -513
263, 164, -951, 204, -25970, 51170, 31430, -388, -535, -516
264, 46, -982, 100, -30870, 64050, 40460, -378, -547, -514
265, -61, -980, 55, -25480, 55300, 48790, -376, -544, -522
266, -55, -956, 110, -17780, 41300, 50330, -375, -553, -526
267, -22, -961, 165, -20930, 51450, 41160, -384, -552, -522
268, -10, -973, 160, -7140, 24360, 32480, -376, -555, -525
269, -107, -999, 97, -3010, 15400, 27930, -369, -552, -525
270, -78, -995, 102, -3640, 16590, 21560, -372, -558, -532
271, -298, -1045, -368, 17990, -43610, 24710, -367, -544, -532
272, 381, -764, 767, -30940, 90370, 35210, -370, -559, -529
273, -574, -1187, -241, -350, 13090, 34790, -361, -570, -528
274, 29, -955, 309, 11480, -23730, 21980, -363, -562, -526
275, -54, -995, 148, -9450, 28910, 21000, -354, -558, -544
276, -224, -1028, 6, 3150, -6930, 20510, -367, -559, -538
277, -165, -1002, 19, -3220, 10360, 20510, -369, -558, -538
278, -62, -982, 165, 6510, -15750, 17290, -355, -558, -537
279, -55, -1005, 141, 0, 2030, 14210, -364, -558, -528
280, -152, -1070, 91, 2170, -6930, 12110, -360, -567, -546
281, -95, -990, 117, 1120, -4550, 8540, -367, -556, -540
282, -79, -990, 131, 0, -770, 8330, -355, -562, -547
283, -82, -985, 134, 630, -2100, 7840, -355, -564, -535
284, -75, -982, 128, -70, -70, 7700, -360, -567, -549
285, -69, -979, 136, -70, 1610, 7770, -358, -562, -538
286, -84, -997, 131, -560, 3920, 7770, -351, -564, -537
287, -85, -996, 129, -630, 4130, 7490, -348, -564, -546
288, -108, -1002, 117, -560, 4200, 7490, -355, -564, -537
289, -113, -1001, 116, -490, 3010, 7070, -345, -576, -543
290, -111, -989, 114, -350, 210, 6090, -354, -562, -537
291, -111, -988, 112, -420, -630, 5880, -355, -568, -546
292, -103, -988, 116, -350, -1050, 5670, -348, -579, -543
293, -99, -991, 114, -490, -980, 5530, -348, -565, -537
294, -91, -990, 114, -630, -140, 5250, -354, -564, -546
295, -93, -987, 114, -700, 350, 5110, -349, -559, -544
296, -98, -984, 114, -700, 700, 4970, -346, -571, -538
297, -103, -985, 115, -700, 1120, 4900, -351, -561, -543
298, -104, -989, 114, -700, 910, 4760, -354, -570, -555
299, -101, -998, 113, -560, 700, 4690, -354, -564, -550
300, -104, -998, 113, -490, 770, 4620, -351, -570, -555
301, -106, -996, 112, -560, 840, 4550, -345, -565, -547
302, -110, -991, 111, -560, 910, 4550, -355, -573, -549
303, -113, -984, 111, -490, 630, 4340, -352, -565, -552
304, -115, -985, 110, -560, 420, 4270, -355, -571, -541
305, -118, -989, 108, -630, 140, 4060, -345, -561, -546
306, -119, -992, 108, -490, -140, 3990, -348, -570, -546
307, -114, -992, 107, -490, -420, 3850, -351, -561, -544
308, -113, -991, 108, -560, -280, 3710, -352, -568, -541
309, -116, -988, 107, -490, -350, 3640, -348, -574, -550
310, -120, -986, 107, -490, -280, 3640, -351, -568, -538
311, -125, -988, 108, -490, -700, 3360, -348, -565, -541
312, -128, -994, 105, -420, -1260, 3150, -336, -570, -543
313, -128, -993, 107, -350, -1750, 3010, -346, -574, -537
314, -128, -992, 109, -280, -2170, 2870, -348, -568, -550
315, -131, -990, 109, -350, -2590, 2730, -343, -565, -541
316, -130, -983, 112, -280, -2940, 2520, -346, -570, -544
317, -128, -985, 114, -210, -3220, 2310, -340, -574, -549
318, -129, -987, 117, -280, -3430, 2100, -339, -570, -546
319, -136, -990, 117, -280, -3640, 1960, -352, -570, -546
320, -143, -991, 117, -210, -4480, 1610, -346, -571, -546
321, -140, -991, 117, -70, -4900, 1330, -351, -576, -544
322, -136, -989, 117, 0, -5530, 1120, -333, -564, -552
323, -136, -987, 120, 70, -5880, 910, -342, -567, -540
324, -137, -988, 121, 0, -6160, 490, -349, -564, -544
325, -138, -988, 122, 0, -6370, 280, -348, -577, -541
326, -141, -987, 121, 70, -6650, 140, -346, -583, -549
327, -145, -986, 120, 0, -7350, -140, -349, -580, -537
328, -151, -987, 119, 0, -8260, -350, -345, -561, -544
329, -154, -989, 119, 280, -10500, -840, -351, -573, -538
330, -152, -990, 120, 350, -11620, -980, -345, -558, -541
331, -144, -991, 123, 560, -12460, -1260, -349, -573, -546
332, -137, -990, 124, 490, -12740, -1540, -349, -561, -535
333, -128, -985, 127, 420, -12460, -1960, -346, -573, -544
334, -123, -984, 127, 350, -11900, -2310, -348, -576, -543
335, -117, -984, 127, 350, -10990, -2590, -348, -570, -537
336, -118, -986, 129, 210, -10010, -2800, -345, -562, -544
337, -108, -988, 132, -140, -7210, -3290, -351, -571, -531
338, -107, -989, 129, 0, -5740, -3500, -348, -571, -534
339, -105, -986, 132, -70, -4340, -3710, -340, -562, -537
340, -109, -982, 131, -70, -3010, -3920, -358, -562, -523
341, -106, -981, 135, -280, -1820, -4060, -348, -568, -535
342, -100, -989, 134, -490, -280, -4410, -351, -562, -538
343, -147, -1002, 97, -2870, 9310, -4620, -351, -565, -531
344, -80, -986, 155, -490, 1890, -4690, -351, -576, -534
345, -94, -990, 137, -630, 2870, -4830, -351, -571, -541
346, -105, -981, 128, -210, 630, -4970, -352, -559, -528
347, -113, -981, 129, -140, 210, -5040, -357, -573, -531
348, -104, -983, 131, -280, -140, -4970, -352, -556, -544
349, -106, -987, 129, -350, -350, -4970, -349, -573, -540
350, -99, -992, 129, -280, -910, -4970, -349, -559, -531
351, -93, -995, 127, -210, -840, -4900, -351, -565, -544
352, -94, -991, 125, -70, -490, -4900, -358, -556, -531
353, -91, -986, 126, -140, -280, -4970, -352, -565, -541
354, -93, -985, 124, 140, -420, -4970, -354, -567, -531
355, -92, -986, 125, 70, -490, -5040, -357, -568, -541
356, -90, -988, 125, 70, -490, -5040, -354, -562, -537
357, -91, -991, 123, -70, -350, -5040, -346, -571, -535
358, -90, -992, 121, -210, -280, -4970, -361, -568, -535
359, -85, -990, 122, -350, 0, -4830, -358, -573, -525
360, -97, -991, 110, -350, 0, -4900, -354, -561, -529
361, -86, -986, 122, -70, -490, -4970, -357, -567, -538
362, -93, -992, 107, -420, -420, -4900, -352, -559, -540
363, -89, -988, 117, -210, -910, -5040, -351, -568, -532
364, -91, -994, 109, 0, -840, -5180, -355, -547, -532
365, -87, -994, 115, -420, -420, -5040, -348, -568, -526
366, -86, -992, 114, -350, -490, -5180, -348, -564, -529
367, -91, -992, 108, 70, -770, -5250, -358, -565, -529
368, -92, -991, 111, -70, -700, -5390, -351, -561, -532
369, -89, -990, 110, -140, -770, -5460, -364, -561, -534
370, -89, -991, 110, -140, -630, -5530, -357, -567, -535
371, -87, -992, 109, -210, -630, -5600, -360, -562, -534
372, -86, -993, 111, -280, -490, -5880, -355, -561, -534
373, -87, -991, 112, -210, -490, -6020, -366, -556, -532
374, -87, -992, 109, -350, -350, -6090, -354, -558, -529
375, -87, -992, 112, -140, -630, -6230, -360, -567, -535
376, -83, -992, 113, -70, -490, -6510, -358, -564, -525
377, -77, -992, 114, -140, -280, -6510, -363, -561, -526
378, -77, -992, 117, -140, -140, -6650, -345, -558, -531
379, -71, -992, 118, -140, 210, -6720, -360, -552, -537
380, -74, -992, 120, -210, 490, -6720, -358, -562, -534
381, -72, -991, 121, -490, 910, -6650, -360, -558, -540
382, -68, -990, 120, -420, 840, -6720, -364, -553, -526
383, -71, -990, 121, -490, 630, -6790, -352, -562, -526
384, -67, -990, 123, -210, 280, -6860, -357, -550, -531
385, -61, -991, 124, -210, 70, -6860, -357, -547, -528
386, -56, -991, 126, -210, 210, -6860, -369, -555, -526
387, -50, -990, 128, -210, 280, -6790, -367, -562, -522
388, -49, -990, 128, -210, 490, -6790, -360, -558, -528
389, -46, -991, 129, -280, 1050, -6580, -360, -558, -534
390, -43, -991, 129, -140, 1400, -6440, -364, -571, -534
391, -46, -991, 126, -280, 1610, -6370, -370, -553, -531
392, -46, -990, 125, -280, 1400, -6300, -361, -555, -540
393, -44, -990, 127, -210, 1120, -6230, -369, -556, -535
394, -42, -990, 126, -210, 700, -6020, -367, -556, -529
395, -40, -992, 125, -140, 560, -5880, -369, -543, -528
396, -41, -993, 124, -70, 280, -5740, -367, -564, -528
397, -39, -992, 124, 0, -70, -5670, -358, -552, -522
398, -37, -991, 122, -210, -420, -5320, -352, -556, -526
399, -33, -991, 123, -140, -490, -5180, -370, -552, -526
400, -28, -991, 124, -210, -490, -5040, -366, -556, -532
401, -25, -992, 123, -140, -350, -4830, -372, -558, -523
402, -24, -992, 124, -70, -210, -4550, -373, -555, -528
403, -23, -992, 122, 0, -140, -4340, -361, -559, -525
404, -22, -991, 122, 0, -140, -4130, -367, -562, -528
405, -22, -992, 120, 0, -70, -3920, -367, -552, -529
406, -20, -993, 119, -140, 0, -3780, -367, -550, -529
407, -17, -992, 120, -280, 490, -3220, -370, -550, -520
408, -18, -992, 120, -210, 630, -3010, -372, -555, -529
409, -18, -992, 118, -140, 560, -2870, -382, -556, -528
410, -21, -992, 118, -70, 490, -2730, -364, -562, -529
411, -26, -994, 118, 0, 210, -2380, -373, -546, -526
412, -27, -994, 118, 0, 70, -2240, -366, -555, -537
413, -27, -994, 118, -70, -140, -2030, -363, -550, -522
414, -28, -993, 120, -70, -210, -1890, -375, -553, -534
415, -28, -992, 120, -70, -420, -1680, -370, -553, -528
416, -30, -992, 122, -210, -490, -1540, -373, -552, -531
417, -29, -992, 123, -210, -350, -1400, -376, -552, -528
418, -30, -993, 122, -140, -280, -1400, -361, -564, -522
419, -30, -994, 123, -140, -210, -1330, -367, -544, -526
420, -31, -994, 123, -140, -70, -1190, -373, -553, -525
421, -34, -993, 124, -280, 140, -1120, -366, -553, -525
422, -32, -993, 125, -210, 210, -1050, -366, -552, -522
423, -34, -992, 124, -280, 280, -1050, -378, -550, -523
424, -34, -992, 127, -210, 490, -980, -373, -550, -537
425, -35, -993, 127, -280, 560, -910, -372, -544, -520
426, -35, -993, 128, -210, 560, -910, -367, -556, -525
427, -35, -993, 128, -280, 490, -840, -376, -546, -523
428, -33, -993, 129, -420, 490, -840, -375, -549, -525
429, -34, -991, 129, -280, 420, -770, -370, -552, -516
430, -33, -992, 129, -210, 420, -770, -369, -555, -528
431, -33, -992, 129, -210, 210, -770, -367, -553, -520
432, -33, -992, 129, -210, 280, -700, -372, -550, -522
433, -35, -993, 127, -210, 140, -700, -369, -547, -517
434, -36, -992, 127, -210, 210, -700, -370, -549, -534
435, -37, -993, 125, -280, 140, -560, -375, -544, -522
436, -34, -993, 124, -280, 140, -630, -370, -552, -517
437, -33, -993, 125, -350, 280, -560, -364, -544, -529
438, -34, -992, 124, -280, 350, -490, -375, -555, -520
439, -33, -993, 123, -210, 350, -490, -372, -538, -522
440, -31, -993, 123, -210, 350, -490, -372, -552, -522
441, -31, -993, 123, -280, 490, -420, -366, -547, -525
442, -33, -994, 122, -210, 420, -350, -379, -549, -525
443, -33, -996, 121, -210, 210, -350, -361, -549, -526
444, -33, -994, 122, -210, 140, -280, -372, -561, -525
445, -31, -992, 124, -280, 140, -210, -372, -547, -522
446, -31, -993, 122, -350, -70, -140, -369, -555, -520
447, -31, -992, 124, -70, -280, -140, -372, -564, -520
448, -28, -992, 124, -280, 0, -70, -375, -561, -519
449, -28, -992, 123, -350, 210, 0, -367, -549, -526
450, -29, -994, 123, -350, 560, 140, -372, -544, -520
451, -29, -993, 124, -280, 700, 210, -370, -550, -531
452, -33, -995, 121, -210, 770, 210, -382, -555, -534
453, -28, -992, 127, -280, 700, 280, -370, -549, -526
454, -42, -997, 115, -70, 70, 350, -375, -547, -523
455, -41, -992, 122, -70, -140, 350, -369, -550, -523
456, -38, -992, 122, -140, -350, 350, -378, -547, -522
457, -38, -992, 120, -210, -350, 350, -369, -552, -522
458, -34, -992, 122, -210, -490, 350, -363, -553, -525
459, -36, -992, 123, -210, -140, 280, -366, -555, -531
460, -38, -992, 124, -280, 140, 280, -369, -549, -528
461, -38, -995, 122, -280, 350, 210, -369, -552, -529
462, -39, -995, 123, -350, 420, 280, -367, -549, -528
463, -41, -993, 125, -140, 490, 210, -366, -555, -522
464, -40, -993, 125, -210, 560, 210, -364, -555, -528
465, -39, -992, 125, -280, 560, 210, -378, -552, -532
466, -39, -992, 124, -350, 630, 210, -369, -544, -532
467, -40, -992, 124, -280, 350, 140, -369, -549, -528
468, -43, -993, 124, -280, 350, 70, -375, -553, -522
469, -44, -994, 124, -210, 280, 70, -376, -550, -528
470, -44, -994, 124, -140, 210, 0, -366, -552, -532
471, -43, -993, 124, -140, 70, -70, -376, -562, -531
472, -42, -992, 124, -350, 70, -140, -367, -553, -520
473, -42, -992, 124, -280, 210, -210, -367, -550, -523
474, -42, -992, 124, -350, 350, -210, -366, -547, -517
475, -43, -993, 124, -420, 350, -280, -376, -556, -526
476, -45, -994, 124, -350, 280, -420, -370, -549, -526
477, -46, -994, 124, -350, 280, -490, -369, -556, -528
478, -46, -994, 123, -350, 210, -560, -373, -543, -522
479, -45, -993, 124, -420, 420, -560, -360, -558, -520
480, -43, -992, 125, -630, 700, -700, -367, -556, -516
481, -40, -991, 125, -560, 910, -700, -373, -558, -522
482, -41, -992, 125, -630, 1050, -840, -366, -552, -526
483, -40, -993, 124, -490, 1260, -840, -372, -544, -522
484, -41, -994, 123, -490, 1330, -980, -373, -543, -520
485, -44, -995, 122, -350, 1050, -1050, -375, -559, -526
486, -46, -995, 122, -350, 770, -1120, -367, -547, -519
487, -46, -994, 122, -350, 630, -1120, -370, -555, -526
488, -46, -993, 121, -420, 420, -1190, -367, -547, -528
489, -40, -992, 122, -350, 140, -1330, -367, -555, -519
490, -38, -992, 122, -420, 140, -1330, -370, -550, -525
491, -37, -992, 122, -490, 280, -1400, -370, -558, -520
492, -38, -993, 122, -420, 350, -1470, -367, -555, -523
493, -37, -994, 122, -280, 490, -1540, -370, -553, -522
494, -39, -996, 121, -210, 420, -1610, -376, -538, -519
495, -39, -995, 123, -140, 280, -1610, -366, -553, -514
496, -37, -994, 124, -140, 140, -1610, -370, -555, -517
497, -36, -993, 124, -210, 70, -1540, -378, -552, -525
498, -32, -991, 123, -280, 210, -1540, -375, -559, -525
499, -31, -992, 124, -420, 350, -1540, -373, -552, -514
500, -32, -992, 123, -280, 350, -1610, -364, -555, -523
501, -30, -994, 125, -350, 420, -1610, -370, -550, -534
502, -28, -994, 123, -280, 490, -1540, -360, -552, -516
503, -30, -995, 122, -210, 560, -1540, -367, -556, -526
504, -29, -995, 122, -210, 560, -1470, -370, -549, -525
505, -31, -994, 122, -140, 490, -1470, -385, -552, -529
506, -31, -994, 120, -70, 0, -1400, -367, -546, -525
507, -32, -992, 120, -140, -280, -1400, -369, -552, -517
508, -31, -993, 120, -140, -350, -1330, -378, -550, -525
509, -29, -994, 119, -140, -350, -1330, -373, -562, -531
510, -28, -994, 121, -140, -350, -1260, -375, -549, -517
511, -26, -994, 121, -140, -140, -1260, -375, -546, -526
512, -27, -994, 120, -70, 0, -1190, -366, -538, -517
513, -28, -995, 121, -70, 210, -1190, -367, -555, -522
514, -29, -994, 122, -70, 210, -1190, -367, -549, -523
515, -30, -993, 121, -140, 0, -1120, -369, -547, -520
516, -31, -992, 122, -140, -70, -1120, -373, -544, -523
517, -31, -992, 122, -70, -70, -1120, -381, -546, -520
518, -31, -993, 124, -210, -70, -1120, -370, -540, -520
519, -33, -994, 122, -70, -210, -1190, -369, -555, -517
520, -34, -995, 125, -70, -280, -1260, -370, -546, -513
521, -35, -994, 124, -70, -210, -1190, -370, -556, -522
522, -33, -993, 125, -140, -70, -1260, -376, -550, -520
523, -33, -992, 126, -140, 70, -1260, -373, -549, -522
524, -30, -992, 127, -210, 490, -1330, -369, -540, -519
525, -32, -992, 126, -420, 630, -1400, -372, -558, -528
526, -33, -993, 125, -350, 700, -1470, -372, -558, -516
527, -34, -994, 126, -350, 770, -1470, -378, -546, -516
528, -37, -994, 125, -350, 630, -1610, -370, -547, -516
529, -37, -994, 125, -350, 490, -1750, -375, -541, -525
530, -37, -994, 125, -280, 280, -1750, -375, -552, -519
531, -36, -993, 126, -350, 140, -1750, -375, -550, -516
532, -33, -991, 127, -560, 280, -1820, -372, -549, -522
533, -29, -991, 127, -490, 420, -1890, -361, -547, -526
534, -26, -992, 126, -560, 630, -1960, -373, -541, -520
535, -27, -993, 126, -420, 630, -2030, -370, -550, -514
536, -25, -994, 127, -280, 770, -2030, -376, -550, -526
537, -24, -995, 126, -420, 980, -2030, -372, -544, -519
538, -27, -995, 124, -280, 840, -2030, -372, -553, -528
539, -29, -996, 122, -70, 630, -2100, -376, -552, -514
540, -31, -994, 122, -140, 210, -2100, -379, -553, -517
541, -28, -992, 122, -210, -350, -2100, -381, -547, -520
542, -26, -991, 121, -350, -560, -2030, -376, -547, -514
543, -22, -991, 124, -420, -490, -2030, -369, -546, -514
544, -19, -991, 124, -490, -280, -1960, -384, -549, -516
545, -18, -993, 123, -350, 210, -2030, -364, -550, -519
546, -19, -997, 123, -140, 420, -2030, -375, -549, -520
547, -22, -997, 121, -140, 280, -2030, -387, -541, -523
548, -25, -996, 122, -70, 210, -2030, -379, -549, -520
549, -27, -994, 122, -70, 0, -2030, -372, -543, -517
550, -25, -992, 121, -210, -490, -2030, -369, -547, -523
551, -23, -991, 122, -280, -560, -2030, -376, -546, -516
552, -22, -992, 122, -420, -630, -2030, -376, -550, -528
553, -21, -994, 122, -280, -630, -2100, -375, -540, -513
554, -20, -997, 121, -70, -350, -2170, -375, -541, -516
555, -20, -996, 124, -70, -210, -2170, -372, -556, -520
556, -24, -996, 121, -70, -140, -2240, -372, -550, -513
557, -25, -994, 122, 0, -140, -2240, -379, -549, -514
558, -26, -992, 123, 0, -490, -2310, -369, -552, -508
559, -27, -992, 124, -140, -630, -2310, -375, -544, -522
560, -29, -993, 122, -140, -840, -2380, -375, -555, -513
561, -28, -995, 123, -210, -1120, -2450, -375, -549, -525
562, -25, -995, 123, -140, -1190, -2590, -387, -549, -517
563, -22, -996, 120, 70, -840, -2800, -384, -552, -522
564, -19, -996, 121, 210, -560, -3010, -381, -552, -516
565, -14, -993, 129, 140, 280, -3080, -381, -546, -511
566, -23, -994, 117, -140, 840, -3080, -373, -547, -526
567, -34, -993, 124, -210, 700, -3290, -378, -555, -516
568, -39, -993, 122, -420, 420, -3290, -376, -550, -520
569, -41, -993, 125, -140, -630, -3570, -378, -543, -510
570, -42, -996, 117, -210, -1050, -3710, -381, -553, -522
571, -38, -996, 120, 70, -1680, -4200, -373, -544, -520
572, -24, -995, 123, -70, -1190, -4340, -388, -544, -516
573, -15, -993, 128, -140, -280, -4480, -379, -540, -520
574, -16, -992, 127, -140, 210, -4760, -378, -546, -510
575, -19, -992, 129, -210, 910, -4970, -373, -541, -517
576, -23, -987, 132, -910, 1610, -4900, -382, -541, -516
577, -25, -991, 130, -910, 1400, -5040, -378, -546, -511
578, -23, -995, 129, -630, 980, -5250, -379, -544, -504
579, -24, -998, 130, -490, 560, -5390, -390, -537, -516
580, -17, -997, 129, -210, -140, -5600, -385, -538, -511
581, -14, -995, 130, -350, -280, -5670, -384, -541, -520
582, -13, -990, 129, -420, -280, -5740, -382, -534, -516
583, -10, -986, 131, -490, -210, -5740, -382, -541, -517
584, -9, -987, 128, -420, -280, -6160, -384, -546, -520
585, -2, -995, 129, -490, 0, -6230, -379, -546, -513
586, 1, -995, 131, -490, 140, -6160, -387, -531, -516
587, -1, -996, 127, -420, 140, -6230, -390, -546, -513
588, -3, -997, 124, -420, 210, -6230, -387, -547, -526
589, -6, -995, 123, -280, -490, -6230, -387, -547, -520
590, -5, -993, 123, -210, -980, -6300, -381, -537, -507
591, -1, -991, 124, -280, -1400, -6370, -384, -538, -514
592, 0, -992, 117, -210, -1540, -6440, -378, -534, -507
593, 12, -993, 121, -280, -1190, -6510, -390, -547, -514
594, 14, -994, 123, -140, -1260, -6510, -382, -538, -502
595, 23, -993, 130, -490, -560, -6370, -390, -549, -511
596, 20, -997, 119, -420, -70, -6300, -394, -543, -517
597, 10, -1001, 108, 700, -2590, -6370, -396, -538, -513
598, 41, -990, 130, 560, -420, -6230, -387, -537, -516
599, 39, -986, 128, 420, 420, -6160, -381, -537, -513
600, 49, -985, 127, 350, 840, -5950, -393, -543, -508
601, 54, -986, 129, 70, 1540, -5600, -388, -541, -514
602, 67, -988, 133, -700, 3290, -5040, -382, -534, -514
603, 66, -995, 132, -770, 3850, -4690, -394, -541, -511
604, 59, -1001, 127, -770, 4130, -4270, -384, -540, -504
605, 51, -1010, 110, -210, 4270, -3850, -393, -547, -517
606, 59, -986, 122, -700, 3150, -3150, -394, -544, -514
607, 67, -983, 112, 210, 2940, -2800, -394, -540, -514
608, 27, -1001, 107, 1260, 4830, -2520, -390, -531, -510
609, 42, -994, 137, 350, 3010, -2100, -387, -537, -513
610, 12, -992, 114, -140, 350, -1750, -388, -543, -513
611, 21, -998, 108, -210, -630, -1680, -390, -534, -513
612, 49, -993, 116, -140, -1400, -1470, -396, -537, -505
613, 20, -990, 111, -210, -1120, -1190, -396, -543, -505
614, 57, -989, 117, -140, -700, -910, -388, -523, -507
615, 70, -1002, 119, -210, 0, -630, -391, -550, -510
616, 41, -996, 119, -210, 350, -490, -381, -534, -508
617, 53, -986, 126, -280, 840, -350, -394, -541, -514
618, 30, -988, 122, -280, 1190, -140, -390, -535, -519
619, 31, -995, 122, -350, 1330, 350, -393, -535, -511
620, 45, -991, 126, -420, 910, 490, -388, -532, -514
621, 32, -994, 127, -280, 350, 630, -384, -538, -514
622, 44, -997, 127, -280, 70, 770, -393, -532, -510
623, 34, -997, 127, -210, 280, 1190, -390, -540, -511
624, 39, -987, 130, -350, 420, 1400, -394, -540, -513
625, 50, -989, 131, -280, 490, 1610, -396, -540, -507
626, 44, -993, 129, -350, 490, 1680, -393, -538, -514
627, 47, -993, 130, -350, 700, 1890, -390, -537, -505
628, 39, -992, 131, -280, 1190, 2380, -384, -531, -510
629, 39, -995, 131, -350, 1050, 2590, -393, -544, -511
630, 45, -992, 131, -350, 840, 2660, -384, -532, -526
631, 49, -988, 136, -420, 560, 2940, -388, -540, -514
632, 67, -982, 153, -560, 350, 3710, -388, -529, -510
633, 76, -985, 157, -630, 280, 4340, -394, -537, -505
634, 80, -990, 151, -770, 560, 4900, -388, -538, -514
635, 82, -996, 144, -560, 910, 5530, -384, -544, -522
636, 79, -999, 137, -280, 1890, 6510, -379, -534, -516
637, 60, -992, 129, -210, 2450, 7000, -387, -547, -516
638, 49, -985, 129, -140, 2590, 7350, -388, -541, -517
639, 41, -985, 123, -210, 2590, 7700, -385, -543, -516
640, 37, -988, 118, -420, 2240, 8050, -379, -535, -514
641, 31, -991, 114, -630, 1540, 8540, -393, -544, -523
642, 32, -994, 112, -700, 1400, 8750, -382, -532, -514
643, 37, -997, 108, -630, 1330, 9030, -388, -543, -514
644, 36, -998, 106, -490, 1540, 9380, -387, -540, -511
645, 19, -1018, 53, -280, 2170, 9940, -376, -541, -522
646, 19, -996, 96, -70, 1540, 9870, -376, -544, -522
647, 31, -982, 109, 0, 1960, 10220, -381, -540, -519
648, 16, -984, 94, -70, 1190, 10290, -379, -540, -517
649, 6, -986, 101, -560, 1820, 10430, -382, -550, -525
650, -176, -1050, 59, -840, 2030, 9450, -379, -538, -525
651, -45, -1026, 109, -980, 5460, 9310, -385, -552, -516
652, -137, -981, 87, 210, 1680, 6930, -382, -541, -508
653, 13, -935, 121, -840, 5110, 6790, -382, -553, -519
654, -28, -977, 128, -1120, 4970, 6370, -373, -543, -523
655, -120, -1005, 123, -490, 1890, 5530, -387, -543, -523
656, -19, -1020, 118, -1260, 4480, 5740, -376, -538, -520
657, -97, -1029, 105, -350, 630, 4410, -378, -547, -525
658, -107, -987, 113, 210, -630, 3360, -381, -544, -522
659, -53, -962, 125, -280, 1750, 3640, -379, -555, -529
660, -90, -970, 128, 70, 280, 3010, -375, -550, -523
661, -37, -995, 130, -490, 1400, 2870, -376, -550, -522
662, -68, -1008, 135, -770, -420, 1890, -376, -537, -523
663, -65, -994, 145, -700, -1470, 1260, -378, -537, -523
664, -41, -994, 142, -910, -70, 1400, -366, -549, -520
665, -61, -1002, 134, -420, -280, 1120, -373, -549, -522
666, -38, -997, 135, -420, 280, 1050, -372, -553, -528
667, -40, -994, 144, 70, -280, 280, -376, -549, -528
668, -64, -1003, 142, 210, -140, -210, -373, -555, -523
669, -55, -992, 150, 0, 770, -420, -381, -541, -526
670, -69, -982, 149, -210, 1330, -700, -375, -541, -528
671, -50, -980, 141, -700, 1400, -1470, -376, -541, -514
672, -34, -990, 137, -700, 910, -1960, -378, -553, -514
673, -66, -1005, 131, -700, 1260, -2100, -378, -544, -525
674, -61, -1008, 134, -350, 1330, -2310, -373, -552, -520
675, -84, -1012, 130, 70, 840, -3010, -373, -547, -517
676, -81, -992, 134, 0, 350, -3500, -384, -555, -519
677, -63, -973, 140, 0, -770, -4270, -376, -540, -522
678, -93, -970, 138, -210, -210, -4690, -376, -556, -523
679, -63, -978, 137, -350, -280, -5180, -376, -540, -523
680, -31, -1000, 129, -420, -140, -6090, -376, -546, -525
681, -58, -1006, 126, -490, 210, -6300, -387, -552, -525
682, -30, -1004, 126, -140, -350, -6860, -382, -537, -519
683, -62, -1002, 125, -210, 420, -6930, -382, -547, -519
684, -40, -989, 125, -140, 280, -7210, -372, -552, -522
685, 3, -987, 125, 70, -560, -7490, -375, -541, -517
686, -29, -989, 124, -210, -140, -7420, -381, -546, -520
687, 9, -993, 123, -210, -420, -7560, -388, -546, -523
688, -18, -995, 121, -210, 140, -7420, -381, -547, -525
689, 0, -994, 117, -280, 770, -7140, -379, -538, -520
690, 38, -993, 115, -140, 210, -7140, -379, -544, -526
691, 8, -990, 115, -140, 350, -6790, -382, -540, -528
692, 45, -989, 117, -70, -560, -6580, -379, -550, -520
693, 48, -1000, 118, -70, -1540, -5740, -387, -540, -523
694, 16, -1007, 116, -140, -1750, -5180, -390, -546, -522
695, 43, -1003, 117, -70, -2450, -4970, -375, -546, -517
696, 19, -994, 117, -140, -2450, -4620, -382, -552, -517
697, 29, -981, 120, -140, -1890, -4200, -385, -534, -519
698, 60, -977, 126, -210, -1260, -3920, -385, -547, -523
699, 38, -987, 122, -280, 0, -3570, -379, -537, -519
700, 71, -995, 126, -350, 980, -3290, -385, -544, -510
701, 43, -1007, 121, -350, 2170, -2590, -384, -535, -508
702, 20, -1003, 119, -350, 2170, -2240, -382, -538, -523
703, 27, -992, 123, -210, 1540, -1890, -382, -534, -519
704, 4, -988, 119, -210, 420, -1610, -390, -550, -510
705, 20, -982, 126, -280, -910, -1330, -382, -546, -513
706, 25, -989, 133, -210, -2800, -1050, -382, -535, -526
707, 22, -995, 133, -280, -2660, -840, -385, -538, -510
708, 42, -997, 133, -280, -1750, -630, -384, -540, -511
709, 36, -999, 129, -280, -630, -560, -393, -541, -519
710, 14, -991, 132, -280, 1540, -560, -387, -543, -519
711, 5, -993, 131, -210, 2100, -490, -382, -537, -522
712, -20, -996, 129, -420, 1750, -560, -382, -544, -523
713, -15, -992, 130, -490, 1400, -630, -385, -532, -520
714, -26, -989, 128, -420, -140, -1050, -385, -549, -520
715, -22, -991, 127, -350, -420, -1260, -385, -543, -531
716, -12, -993, 126, -280, -140, -1470, -388, -534, -516
717, -18, -997, 126, -280, 70, -1750, -381, -541, -514
718, -11, -998, 125, -350, 630, -1960, -379, -537, -514
719, -24, -998, 122, -210, 420, -2590, -379, -550, -522
720, -35, -996, 119, -210, 280, -2940, -379, -538, -504
721, -29, -994, 116, -140, 280, -3220, -387, -546, -514
722, -30, -994, 113, -140, 140, -3640, -384, -532, -516
723, -26, -995, 115, -280, 140, -4340, -387, -544, -522
724, -30, -997, 111, -420, 560, -4760, -387, -549, -531
725, -19, -994, 116, -630, 630, -5040, -382, -550, -522
726, -1, -985, 149, -1610, 1960, -5390, -388, -540, -514
727, -52, -1011, 72, 70, -3290, -5740, -387, -541, -528
728, -15, -999, 103, -280, -1820, -5810, -385, -541, -519
729, 24, -992, 121, 140, -2660, -5950, -384, -544, -525
730, 19, -998, 109, -70, -1260, -6020, -390, -538, -508
731, 41, -988, 122, 140, -1050, -6090, -393, -543, -517
732, 32, -998, 123, -140, 770, -6020, -391, -532, -511
733, 14, -1007, 118, -280, 1400, -5950, -390, -538, -523
734, 6, -1005, 117, -210, 840, -6020, -393, -540, -519
735, -8, -997, 116, -140, -210, -6090, -393, -534, -514
736, -11, -986, 117, 70, -2800, -6300, -390, -543, -508
737, 0, -986, 118, 210, -3570, -6510, -399, -537, -516
738, 8, -989, 122, 140, -3710, -6580, -387, -532, -510
739, 22, -995, 125, 70, -3360, -6860, -393, -534, -514
740, 28, -1000, 130, -70, -1540, -7140, -394, -532, -514
741, 41, -995, 128, -210, 0, -7210, -403, -540, -510
742, 43, -994, 124, -280, 1330, -7280, -396, -547, -507
743, 29, -996, 121, -140, 2170, -7350, -394, -538, -520
744, 20, -996, 119, -70, 2380, -7350, -393, -531, -510
745, 2, -990, 122, 0, 490, -7630, -394, -540, -510
746, -3, -986, 124, 0, -1050, -7770, -391, -535, -513
747, 6, -987, 129, -70, -2450, -7910, -396, -534, -520
748, 13, -986, 133, -70, -3500, -7980, -393, -529, -511
749, 39, -996, 135, -140, -4060, -8120, -394, -541, -505
750, 55, -994, 134, -70, -3430, -8120, -387, -534, -498
751, 57, -992, 133, 0, -2380, -8190, -399, -535, -510
752, 63, -995, 133, 70, -1260, -8260, -396, -532, -505
753, 50, -998, 132, 140, 700, -8260, -397, -531, -511
754, 34, -987, 130, 70, 980, -8400, -394, -531, -502
755, 32, -982, 133, -70, 420, -8540, -402, -540, -510
756, 28, -978, 134, -210, -280, -8610, -393, -529, -504
757, 31, -980, 135, -350, -980, -8680, -396, -529, -507
758, 55, -995, 131, -420, -1820, -8680, -388, -528, -502
759, 65, -1000, 129, -210, -1820, -8610, -399, -538, -502
760, 74, -1000, 132, -70, -1750, -8610, -403, -535, -507
761, 77, -993, 134, 140, -1260, -8470, -411, -519, -504
762, 81, -985, 135, 0, -770, -7980, -396, -522, -501
763, 82, -985, 133, -70, -770, -7770, -396, -528, -508
764, 79, -988, 129, -210, -910, -7560, -405, -523, -495
765, 79, -991, 125, -210, -1120, -7350, -402, -520, -505
766, 81, -992, 122, -140, -1680, -7000, -403, -520, -508
767, 91, -991, 121, -70, -1680, -6720, -402, -532, -502
768, 96, -990, 123, -70, -1820, -6440, -405, -525, -504
769, 97, -991, 123, -70, -1820, -6160, -408, -522, -499
770, 101, -992, 122, 0, -1820, -5880, -402, -520, -498
771, 101, -993, 120, -70, -1820, -5250, -405, -523, -505
772, 98, -990, 119, 0, -1820, -4970, -405, -522, -496
773, 100, -988, 119, -70, -1820, -4760, -397, -525, -496
774, 100, -987, 120, -140, -1680, -4550, -406, -520, -496
775, 111, -987, 124, -140, -1260, -3990, -405, -517, -493
776, 117, -988, 125, -210, -840, -3640, -405, -519, -498
777, 120, -990, 125, -350, -280, -3290, -405, -519, -499
778, 125, -994, 123, -350, 280, -2870, -406, -523, -501
779, 126, -995, 119, -210, 1050, -2100, -402, -517, -493
780, 118, -992, 119, -140, 1050, -1750, -403, -505, -504
781, 111, -990, 118, -210, 840, -1260, -406, -523, -501
782, 107, -987, 121, -140, 420, -840, -402, -528, -495
783, 107, -984, 122, -280, -140, -490, -408, -526, -501
784, 116, -984, 127, -350, -1120, 280, -402, -520, -505
785, 121, -988, 127, -420, -1050, 700, -403, -522, -501
786, 126, -993, 127, -350, -770, 1050, -415, -516, -486
787, 126, -996, 124, -280, -280, 1540, -406, -520, -499
788, 116, -995, 121, -70, 630, 2310, -411, -510, -499
789, 106, -992, 121, -70, 980, 2590, -406, -517, -496
790, 96, -987, 122, -140, 1050, 2800, -403, -531, -502
791, 90, -986, 125, -280, 840, 3010, -399, -522, -489
792, 87, -984, 129, -490, 490, 3430, -411, -523, -495
793, 88, -987, 130, -560, 280, 3570, -405, -525, -492
794, 89, -989, 130, -560, 70, 3710, -403, -520, -496
795, 91, -993, 131, -560, 140, 3920, -405, -528, -495
796, 92, -996, 132, -420, 280, 4130, -399, -520, -498
797, 88, -994, 134, -140, 560, 4480, -403, -531, -501
798, 84, -990, 134, -210, 910, 4620, -399, -520, -492
799, 79, -988, 132, -210, 1120, 4690, -402, -525, -498
800, 73, -986, 129, -280, 1330, 4830, -396, -519, -502
801, 61, -991, 122, -490, 1750, 4830, -406, -523, -505
802, 59, -996, 117, -420, 1890, 4760, -405, -522, -493
803, 55, -996, 114, -350, 1960, 4620, -405, -534, -496
804, 55, -996, 112, -420, 2030, 4550, -405, -534, -501
805, 49, -991, 115, -280, 1750, 4410, -406, -514, -501
806, 50, -990, 116, -350, 1470, 4270, -402, -522, -498
807, 59, -994, 117, -420, 1330, 4270, -400, -525, -495
808, 61, -994, 122, -490, 1260, 4270, -391, -532, -504
809, 65, -997, 121, -420, 1400, 4270, -400, -516, -498
810, 62, -992, 120, -420, 1820, 4410, -400, -523, -501
811, 66, -992, 122, -350, 1890, 4410, -402, -522, -502
812, 55, -995, 121, -350, 2240, 4480, -397, -532, -496
813, 53, -996, 125, -420, 2170, 4410, -402, -538, -498
814, 43, -990, 130, -490, 1750, 4270, -396, -526, -496
815, 41, -982, 133, -490, 1400, 4200, -400, -535, -499
816, 42, -981, 133, -560, 1190, 4130, -399, -528, -495
817, 41, -987, 129, -560, 980, 4130, -393, -522, -498
818, 43, -997, 128, -350, 1190, 3920, -399, -525, -501
819, 31, -1005, 127, -280, 1330, 3710, -394, -528, -499
820, 20, -1000, 128, -210, 1470, 3500, -403, -529, -501
821, 13, -992, 131, -210, 1470, 3150, -403, -526, -495
822, 5, -984, 133, -350, 1470, 2800, -393, -525, -502
823, 0, -979, 136, -560, 1330, 2030, -394, -523, -496
824, 0, -990, 136, -700, 1540, 1540, -400, -532, -507
825, 4, -1001, 137, -630, 2030, 980, -396, -528, -501
826, 7, -1006, 136, -630, 2660, 490, -390, -526, -493
827, 10, -996, 132, -420, 4410, -420, -396, -528, -501
828, 8, -990, 129, -350, 5110, -840, -402, -538, -498
829, 0, -989, 127, -420, 5530, -1260, -388, -528, -504
830, -5, -991, 124, -350, 5460, -1750, -393, -525, -501
831, -14, -995, 118, -420, 4270, -2730, -391, -531, -507
832, -26, -996, 107, -490, 2940, -3290, -400, -528, -498
833, -31, -993, 115, -490, 1470, -3780, -394, -523, -502
834, -11, -995, 117, -350, 0, -4270, -397, -529, -505
835, -8, -996, 116, -210, -910, -4690, -390, -525, -498
836, 19, -998, 127, -140, -1540, -5390, -394, -529, -492
837, 36, -997, 127, -70, -1610, -5670, -399, -519, -493
838, 42, -992, 132, -140, -1260, -5810, -388, -531, -499
839, 52, -988, 134, -210, -910, -5950, -397, -528, -507
840, 57, -989, 132, -210, -280, -6020, -397, -528, -511
841, 55, -990, 135, -140, -280, -6020, -399, -532, -502
842, 61, -991, 127, -140, -350, -5950, -397, -532, -508
843, 54, -992, 129, -140, -630, -5950, -394, -525, -508
844, 70, -993, 128, -140, -770, -5810, -390, -525, -507
845, 77, -991, 126, -70, -560, -5740, -396, -522, -501
846, 72, -989, 126, -70, -420, -5670, -402, -526, -501
847, 82, -988, 123, -70, -210, -5530, -402, -519, -508
848, 79, -989, 121, -140, -70, -5390, -400, -534, -498
849, 84, -991, 121, -140, 210, -5040, -402, -523, -508
850, 91, -993, 118, -140, 70, -4760, -399, -528, -495
851, 90, -992, 119, -210, -70, -4550, -402, -516, -510
852, 94, -992, 122, -210, -350, -4270, -391, -525, -507
853, 101, -989, 124, -280, -840, -3640, -403, -523, -498
854, 107, -987, 126, -210, -1120, -3290, -406, -522, -502
855, 117, -987, 128, -210, -1540, -2800, -402, -523, -492
856, 126, -988, 131, -210, -1820, -2310, -405, -522, -490
857, 133, -988, 132, -210, -1890, -1050, -403, -510, -502
858, 134, -991, 128, -140, -1540, -420, -405, -531, -505
859, 131, -992, 127, -140, -1120, 140, -405, -513, -496
860, 124, -990, 126, -70, -490, 560, -412, -526, -507
861, 120, -989, 125, -140, 140, 910, -405, -523, -496
862, 109, -989, 123, -280, 1540, 1540, -399, -519, -498
863, 101, -989, 122, -350, 2100, 1890, -408, -522, -502
864, 98, -990, 119, -490, 2450, 2100, -400, -526, -502
865, 90, -993, 117, -560, 2310, 2380, -400, -528, -496
866, 80, -996, 117, -490, 1330, 2800, -397, -513, -498
867, 78, -992, 118, -420, 630, 2940, -399, -523, -499
868, 76, -989, 121, -350, 0, 3220, -396, -523, -496
869, 79, -986, 123, -280, -490, 3430, -406, -528, -508
870, 81, -987, 128, -280, -840, 3850, -393, -528, -501
871, 84, -992, 130, -350, -490, 3920, -406, -526, -499
872, 86, -991, 130, -420, 140, 4060, -408, -523, -508
873, 84, -992, 129, -420, 840, 4200, -400, -529, -508
874, 82, -991, 129, -420, 1470, 4270, -397, -520, -498
875, 71, -991, 127, -420, 2240, 4480, -397, -522, -507
876, 62, -991, 125, -490, 2310, 4480, -405, -528, -498
877, 56, -993, 123, -420, 2100, 4550, -400, -528, -505
878, 51, -994, 122, -490, 1750, 4620, -396, -525, -510
879, 48, -992, 121, -420, 840, 4480, -397, -532, -502
880, 52, -995, 121, -350, 560, 4480, -397, -520, -498
881, 52, -992, 120, -350, 490, 4480, -393, -522, -502
882, 55, -990, 127, -420, 700, 4480, -402, -534, -498
883, 63, -991, 121, -420, 1470, 4480, -390, -532, -504
884, 58, -993, 122, -420, 1890, 4410, -387, -531, -501
885, 48, -993, 122, -420, 2240, 4410, -403, -531, -511
886, 46, -994, 120, -350, 2310, 4340, -396, -523, -499
887, 38, -992, 123, -490, 2240, 4270, -399, -529, -510
888, 33, -991, 121, -490, 1680, 4130, -400, -519, -505
889, 37, -992, 120, -490, 1400, 3990, -403, -534, -508
890, 34, -993, 123, -420, 1050, 3920, -399, -531, -505
891, 37, -998, 117, -350, 980, 3850, -403, -531, -517
892, 28, -991, 125, -350, 840, 3640, -397, -535, -508
893, 24, -992, 122, -280, 770, 3430, -402, -528, -504
894, 21, -995, 120, -280, 840, 3220, -393, -529, -504
895, 14, -993, 123, -280, 840, 2940, -391, -534, -511
896, 10, -994, 122, -420, 840, 2310, -393, -543, -513
897, 4, -995, 125, -420, 770, 1960, -405, -531, -505
898, 3, -992, 127, -420, 630, 1540, -396, -523, -505
899, 4, -991, 128, -350, 350, 1190, -396, -526, -510
900, 5, -991, 129, -350, 140, 840, -394, -529, -504
901, 7, -995, 130, -280, -70, 210, -397, -538, -511
902, 6, -997, 129, -210, 70, -70, -402, -537, -496
903, 7, -997, 131, -280, 70, -420, -393, -528, -504
904, 6, -997, 132, -210, 210, -770, -399, -525, -502
905, 9, -991, 134, -280, 420, -1470, -399, -526, -510
906, 15, -987, 136, -280, 350, -1750, -396, -543, -502
907, 19, -988, 134, -350, 210, -1960, -403, -537, -504
908, 28, -990, 133, -420, 0, -2170, -400, -525, -510
909, 32, -996, 131, -280, -210, -2310, -400, -534, -508
910, 38, -998, 129, -280, -210, -2380, -397, -525, -504
911, 39, -996, 127, -210, 0, -2450, -400, -531, -502
912, 37, -993, 125, -140, -140, -2450, -394, -528, -505
913, 36, -990, 123, -210, -140, -2590, -402, -529, -504
914, 32, -990, 122, -210, -420, -2800, -385, -522, -507
915, 31, -993, 121, -140, -490, -2870, -390, -526, -505
916, 34, -995, 119, -280, -700, -3010, -391, -525, -498
917, 36, -996, 119, -210, -840, -3080, -397, -534, -504
918, 47, -994, 120, -140, -1050, -3220, -396, -523, -507
919, 51, -992, 122, -210, -1120, -3290, -397, -534, -507
920, 56, -991, 123, -210, -910, -3220, -396, -532, -504
921, 61, -991, 124, -210, -700, -3150, -394, -532, -507
922, 64, -991, 126, -210, -280, -2940, -396, -532, -507
923, 64, -992, 125, -210, -140, -2940, -396, -529, -499
924, 63, -992, 123, -210, -70, -2660, -399, -528, -507
925, 63, -993, 123, -210, 70, -2660, -391, -526, -498
926, 61, -993, 122, -280, 70, -2590, -399, -520, -505
927, 62, -993, 122, -210, 0, -2380, -397, -528, -489
928, 62, -992, 122, -140, 0, -2310, -406, -525, -501
929, 63, -992, 124, -140, 0, -2240, -403, -537, -513
930, 66, -992, 125, -210, 70, -2100, -397, -522, -501
931, 72, -993, 122, -280, 210, -1890, -400, -526, -505
932, 72, -993, 124, -280, 210, -1820, -408, -520, -501
933, 73, -992, 122, -210, 420, -1610, -405, -529, -505
934, 73, -991, 122, -210, 350, -1470, -409, -523, -513
935, 73, -991, 123, -210, 280, -1120, -396, -523, -495
936, 70, -991, 123, -280, 210, -980, -397, -516, -496
937, 68, -991, 124, -280, 70, -840, -402, -526, -501
938, 66, -992, 125, -280, 70, -770, -399, -525, -496
939, 64, -992, 124, -350, 70, -630, -400, -532, -499
940, 64, -993, 126, -280, 70, -490, -399, -519, -505
941, 64, -993, 127, -350, 0, -420, -403, -531, -498
942, 65, -992, 127, -280, 210, -350, -402, -523, -498
943, 66, -993, 128, -280, 280, -280, -393, -535, -502
944, 64, -992, 128, -280, 490, -140, -394, -513, -501
945, 61, -991, 127, -350, 630, -70, -390, -531, -504
946, 60, -991, 127, -280, 770, -70, -393, -520, -496
947, 55, -991, 127, -280, 700, 0, -402, -535, -501
948, 56, -991, 128, -350, 560, 0, -402, -520, -499
949, 57, -990, 128, -350, 350, 0, -393, -520, -499
950, 59, -990, 128, -350, 140, 70, -399, -523, -495
951, 62, -990, 129, -350, 140, 140, -402, -526, -502
952, 63, -992, 129, -280, 140, 210, -396, -541, -510
953, 64, -995, 126, -350, 280, 350, -396, -529, -493
954, 62, -994, 126, -280, 560, 420, -396, -525, -505
955, 58, -993, 125, -280, 700, 420, -394, -532, -502
956, 53, -991, 124, -210, 770, 420, -403, -522, -504
957, 45, -990, 123, -280, 700, 350, -397, -531, -507
958, 43, -992, 123, -350, 420, 280, -396, -526, -502
959, 43, -993, 124, -280, 140, 140, -397, -519, -504
960, 43, -994, 124, -350, -70, 70, -397, -534, -502
961, 46, -993, 125, -280, -490, 0, -394, -534, -499
962, 53, -992, 127, -350, -490, -70, -393, -531, -504
963, 55, -991, 129, -280, -420, -70, -402, -514, -493
964, 58, -991, 129, -210, -280, -70, -400, -532, -499
965, 59, -991, 130, -210, -140, -70, -400, -526, -504
966, 59, -991, 130, -350, 210, 0, -400, -529, -516
967, 58, -991, 129, -280, 350, 0, -402, -522, -493
968, 59, -992, 128, -350, 350, 0, -397, -535, -508
969, 56, -992, 127, -280, 350, 70, -403, -525, -504
970, 55, -992, 126, -280, 490, 140, -405, -531, -495
971, 56, -993, 125, -280, 420, 70, -402, -520, -508
972, 56, -993, 125, -280, 350, 140, -402, -529, -501
973, 58, -993, 123, -280, 350, 140, -399, -519, -505
974, 57, -992, 120, -280, 490, 210, -403, -532, -502
975, 56, -993, 120, -210, 630, 210, -399, -531, -504
976, 55, -993, 118, -280, 770, 210, -400, -525, -499
977, 52, -994, 118, -350, 700, 140, -402, -525, -501
978, 50, -994, 117, -280, 700, 140, -397, -523, -502
979, 46, -994, 117, -350, 630, 0, -393, -526, -505
980, 45, -993, 118, -280, 490, -70, -394, -531, -510
981, 45, -993, 117, -350, 490, -140, -396, -526, -505
982, 45, -993, 117, -280, 350, -280, -399, -525, -504
983, 46, -993, 118, -210, 280, -350, -397, -523, -504
984, 47, -994, 121, -210, 350, -420, -409, -525, -511
985, 45, -993, 121, -280, 350, -490, -406, -523, -508
986, 45, -993, 122, -280, 280, -630, -403, -528, -496
987, 44, -992, 126, -280, 210, -700, -402, -528, -504
988, 44, -993, 127, -280, 0, -840, -396, -532, -498
989, 45, -992, 126, -280, 70, -910, -396, -520, -496
990, 47, -993, 128, -210, 0, -980, -397, -529, -522
991, 47, -993, 128, -280, -70, -1050, -399, -526, -501
992, 50, -992, 129, -210, 0, -1120, -399, -525, -501
993, 52, -991, 131, -140, 0, -1190, -405, -522, -508
994, 52, -991, 131, -280, 70, -1190, -397, -528, -498
995, 53, -991, 131, -210, 70, -1190, -403, -525, -505
996, 53, -992, 131, -280, 140, -1260, -402, -526, -502
997, 52, -992, 129, -280, 140, -1330, -400, -522, -504
998, 52, -993, 130, -280, 280, -1330, -405, -526, -498
999, 52, -992, 127, -280, 210, -1330, -402, -529, -499
1000, 53, -992, 126, -280, 210, -1400, -403, -519, -514
1001, 55, -993, 126, -210, 210, -1470, -397, -517, -498
1002, 55, -992, 124, -210, 140, -1470, -403, -525, -498
1003, 57, -993, 123, -210, 140, -1470, -400, -520, -496
1004, 57, -993, 123, -280, 210, -1470, -400, -534, -504
1005, 58, -993, 121, -210, 210, -1470, -394, -525, -496
1006, 59, -993, 120, -280, 280, -1400, -405, -520, -502
1007, 59, -993, 120, -210, 210, -1400, -411, -529, -507
1008, 59, -993, 120, -280, 210, -1400, -393, -517, -505
1009, 60, -994, 120, -280, 70, -1400, -403, -529, -514
1010, 60, -993, 121, -210, 70, -1400, -391, -526, -496
1011, 63, -992, 121, -210, 140, -1330, -402, -528, -499
1012, 60, -993, 122, -280, 140, -1400, -397, -514, -504
1013, 62, -993, 122, -280, 70, -1260, -400, -526, -504
1014, 62, -993, 123, -210, 0, -1260, -393, -522, -504
1015, 62, -992, 124, -280, 70, -1260, -400, -535, -507
1016, 62, -992, 125, -210, 0, -1260, -403, -523, -498
1017, 62, -991, 127, -210, 0, -1190, -403, -525, -496
1018, 63, -991, 127, -280, 0, -1120, -393, -540, -505
1019, 64, -990, 128, -210, 70, -1120, -408, -526, -492
1020, 63, -991, 129, -280, 0, -1120, -400, -523, -493
1021, 63, -991, 129, -280, 0, -1120, -400, -522, -502
1022, 64, -991, 130, -210, 0, -980, -405, -519, -499
1023, 64, -991, 129, -210, 0, -980, -399, -526, -507
1024, 65, -991, 129, -280, 0, -980, -403, -526, -504
1025, 65, -991, 129, -280, 70, -910, -414, -529, -504
1026, 65, -991, 128, -280, 70, -840, -400, -522, -499
1027, 66, -993, 127, -280, 140, -840, -408, -526, -501
1028, 67, -992, 126, -280, 140, -700, -405, -525, -495
1029, 67, -993, 125, -350, 210, -630, -399, -522, -507
1030, 66, -993, 124, -280, 210, -630, -405, -523, -507
1031, 65, -992, 124, -280, 420, -560, -408, -534, -501
1032, 64, -992, 123, -280, 350, -560, -396, -525, -495
1033, 62, -992, 122, -280, 350, -560, -400, -532, -496
1034, 61, -993, 121, -280, 280, -490, -402, -531, -498
1035, 60, -993, 121, -210, 280, -560, -402, -525, -496
1036, 61, -993, 120, -350, 280, -560, -409, -531, -508
1037, 60, -992, 120, -280, 280, -490, -402, -531, -505
1038, 60, -992, 121, -210, 280, -630, -405, -526, -499
1039, 60, -993, 122, -280, 350, -630, -400, -529, -504
1040, 58, -992, 122, -210, 350, -700, -399, -531, -493
1041, 60, -991, 123, -210, 350, -700, -403, -529, -499
1042, 56, -993, 124, -210, 280, -770, -402, -520, -505
1043, 59, -992, 125, -280, 350, -770, -400, -528, -498
1044, 58, -994, 126, -350, 210, -840, -393, -525, -505
1045, 52, -992, 128, -280, 280, -980, -396, -528, -498
1046, 57, -991, 127, -280, 140, -980, -412, -523, -498
1047, 52, -992, 127, -280, 140, -1050, -406, -525, -507
1048, 52, -994, 125, -280, 280, -1190, -399, -522, -504
1049, 58, -994, 126, -140, 280, -1330, -406, -531, -513
1050, 53, -991, 126, -140, 280, -1400, -396, -525, -498
1051, 57, -990, 126, -280, 350, -1540, -400, -528, -498
1052, 55, -989, 128, -280, 210, -1680, -406, -522, -489
1053, 51, -992, 126, -280, 210, -1750, -399, -532, -492
1054, 55, -994, 125, -280, 70, -1890, -394, -532, -492
1055, 53, -995, 126, -280, 140, -1960, -408, -526, -507
1056, 56, -993, 126, -210, 70, -2030, -394, -520, -492
1057, 56, -991, 125, -210, 140, -2240, -408, -529, -495
1058, 53, -991, 127, -210, 70, -2380, -396, -528, -498
1059, 56, -990, 127, -280, 70, -2450, -406, -532, -505
1060, 55, -991, 128, -210, 0, -2520, -408, -522, -495
1061, 56, -993, 126, -210, -70, -2730, -400, -528, -507
1062, 57, -993, 125, -210, -70, -2870, -402, -523, -499
1063, 55, -991, 126, -210, 70, -2940, -396, -529, -507
1064, 56, -991, 125, -140, 0, -3080, -411, -526, -492
1065, 56, -992, 125, -210, -140, -3360, -411, -528, -499
1066, 56, -992, 126, -140, -140, -3430, -409, -523, -498
1067, 56, -992, 125, -210, -210, -3570, -411, -529, -498
1068, 56, -992, 126, -210, -210, -3710, -405, -519, -495
1069, 57, -991, 124, -210, -210, -3850, -405, -529, -492
1070, 57, -992, 123, -210, -280, -4060, -411, -529, -493
1071, 57, -992, 124, -140, -280, -4200, -411, -528, -498
1072, 57, -992, 124, -140, -280, -4410, -415, -526, -495
1073, 57, -991, 123, -140, -350, -4550, -406, -516, -492
1074, 57, -991, 125, -210, -420, -4830, -408, -523, -498
1075, 59, -991, 123, -210, -490, -4970, -406, -522, -496
1076, 59, -991, 124, -140, -560, -5110, -409, -522, -489
1077, 59, -992, 124, -140, -490, -5320, -405, -520, -502
1078, 60, -992, 125, -210, -630, -5670, -397, -516, -490
1079, 59, -991, 125, -140, -630, -5810, -411, -514, -490
1080, 60, -991, 124, -140, -630, -6020, -411, -516, -490
1081, 60, -991, 127, -70, -700, -6230, -409, -523, -501
1082, 61, -991, 126, -210, -770, -6440, -405, -513, -492
1083, 61, -991, 126, -70, -910, -6860, -406, -523, -492
1084, 61, -990, 126, -140, -980, -7000, -411, -522, -495
1085, 62, -991, 126, -70, -980, -7280, -411, -516, -495
1086, 61, -990, 126, -70, -1050, -7490, -411, -517, -496
1087, 63, -990, 125, -70, -1120, -7840, -402, -522, -492
1088, 64, -989, 127, -70, -1120, -8120, -412, -514, -496
1089, 63, -989, 125, -70, -1120, -8400, -411, -523, -492
1090, 65, -989, 126, -70, -1190, -8680, -406, -513, -490
1091, 66, -990, 126, 0, -1260, -9240, -414, -520, -492
1092, 66, -990, 124, -70, -1260, -9450, -411, -516, -490
1093, 66, -989, 124, -70, -1330, -9800, -412, -513, -495
1094, 66, -988, 125, 0, -1400, -10010, -412, -513, -487
1095, 67, -989, 125, 0, -1400, -10360, -414, -504, -487
1096, 68, -989, 124, 0, -1540, -10990, -415, -517, -486
1097, 68, -988, 124, -70, -1610, -11340, -418, -508, -495
1098, 69, -988, 124, 0, -1610, -11690, -409, -510, -498
1099, 69, -987, 125, 0, -1680, -12040, -408, -511, -492
1100, 70, -987, 124, 0, -1750, -12740, -417, -510, -490
1101, 72, -987, 124, 0, -1750, -13160, -420, -513, -492
1102, 71, -986, 125, 0, -1750, -13510, -414, -511, -492
1103, 72, -986, 124, -70, -1750, -13930, -418, -508, -489
1104, 74, -986, 124, 0, -1890, -14840, -415, -510, -495
1105, 73, -985, 125, 70, -2030, -15260, -427, -510, -484
1106, 74, -985, 124, 70, -2030, -15750, -417, -505, -486
1107, 73, -985, 125, 70, -2030, -16240, -427, -505, -484
1108, 76, -984, 125, 0, -2100, -16730, -417, -502, -478
1109, 77, -983, 124, 140, -2240, -17780, -429, -507, -474
1110, 77, -982, 124, 70, -2380, -18270, -424, -505, -484
1111, 78, -982, 125, 140, -2450, -18830, -427, -498, -489
1112, 79, -981, 125, 210, -2520, -19460, -421, -507, -483
1113, 80, -980, 124, 140, -2660, -20650, -424, -490, -484
1114, 81, -978, 125, 210, -2730, -21280, -432, -502, -478
1115, 81, -978, 125, 140, -2870, -21910, -435, -496, -469
1116, 83, -977, 125, 210, -2800, -22540, -435, -499, -474
1117, 84, -975, 124, 210, -2940, -24010, -426, -489, -474
1118, 84, -975, 124, 280, -3080, -24780, -433, -499, -474
1119, 85, -974, 123, 280, -3220, -25550, -439, -486, -469
1120, 86, -973, 123, 280, -3360, -26320, -439, -492, -475
1121, 87, -971, 123, 280, -3430, -27160, -436, -481, -469
1122, 90, -969, 122, 280, -3850, -28840, -436, -493, -475
1123, 90, -967, 123, 210, -4060, -29750, -439, -487, -469
1124, 91, -965, 122, 350, -4130, -30660, -441, -483, -475
1125, 92, -964, 122, 420, -4340, -31640, -438, -483, -472
1126, 95, -961, 121, 350, -4620, -33600, -445, -487, -457
1127, 96, -960, 121, 350, -4760, -34720, -447, -483, -465
1128, 97, -957, 121, 420, -4970, -35770, -438, -493, -466
1129, 97, -955, 121, 420, -5180, -36890, -448, -472, -448
1130, 99, -950, 121, 490, -5740, -39200, -459, -472, -447
1131, 100, -948, 121, 490, -5950, -40460, -445, -465, -451
1132, 103, -945, 121, 560, -6090, -41720, -448, -469, -447
1133, 104, -942, 121, 560, -6370, -42980, -466, -472, -453
1134, 106, -940, 120, 560, -6580, -44310, -448, -465, -454
1135, 110, -936, 119, 560, -7000, -47180, -462, -451, -448
1136, 111, -932, 118, 630, -7140, -48720, -465, -466, -439
1137, 114, -928, 118, 630, -7210, -50190, -472, -457, -439
1138, 116, -924, 117, 630, -7350, -51800, -474, -453, -436
1139, 119, -913, 116, 700, -7490, -55090, -480, -447, -429
1140, 120, -907, 116, 700, -7630, -56770, -477, -444, -430
1141, 121, -902, 115, 700, -7700, -58590, -474, -439, -430
1142, 122, -897, 115, 770, -7910, -60410, -474, -433, -432
1143, 126, -885, 113, 700, -8400, -64330, -489, -423, -418
1144, 128, -879, 112, 770, -8610, -66290, -484, -438, -417
1145, 129, -872, 110, 840, -9030, -68390, -489, -415, -418
1146, 130, -865, 111, 840, -9380, -70490, -484, -415, -408
1147, 131, -857, 109, 980, -9660, -72660, -496, -412, -409
1148, 134, -838, 108, 980, -10640, -77280, -493, -414, -400
1149, 135, -829, 107, 1050, -11200, -79730, -504, -406, -400
1150, 137, -819, 106, 980, -11900, -82250, -498, -399, -385
1151, 138, -808, 104, 1050, -12600, -84770, -510, -391, -378
1152, 143, -784, 101, 1190, -14070, -90160, -502, -385, -373
1153, 147, -772, 100, 1190, -14770, -92890, -516, -379, -382
1154, 152, -758, 99, 1190, -15260, -95900, -516, -370, -373
1155, 158, -743, 99, 1190, -15610, -98840, -522, -372, -367
1156, 169, -709, 94, 1120, -16030, -105210, -526, -354, -354
1157, 171, -692, 91, 1120, -15960, -108500, -526, -354, -348
1158, 165, -673, 90, 1120, -15750, -111860, -538, -342, -352
1159, 168, -653, 89, 1050, -15540, -115150, -529, -339, -351
1160, 166, -633, 86, 980, -15330, -118650, -540, -321, -325
1161, 173, -596, 80, 910, -15960, -126140, -540, -330, -318
1162, 178, -572, 75, 910, -16450, -130060, -556, -300, -309
1163, 173, -545, 72, 980, -16940, -134120, -549, -289, -307
1164, 175, -517, 68, 1050, -17500, -138320, -555, -280, -297
1165, 174, -455, 60, 1190, -18550, -146860, -564, -274, -286
1166, 175, -421, 56, 1330, -19250, -151270, -562, -255, -280
1167, 181, -382, 53, 1330, -20090, -155960, -567, -258, -261
1168, 185, -343, 49, 1470, -21210, -160790, -570, -241, -262
1169, 191, -269, 42, 1470, -23170, -170940, -565, -223, -240
1170, 180, -234, 40, 1400, -23870, -176050, -568, -201, -229
1171, 174, -195, 34, 1260, -24220, -181090, -568, -201, -226
1172, 179, -146, 26, 1330, -24150, -186270, -582, -180, -211
1173, 196, -88, 18, 1260, -24360, -191660, -583, -165, -195
1174, 201, 29, 2, 1470, -25340, -203210, -580, -157, -180
1175, 193, 76, -4, 1610, -25760, -209300, -583, -141, -172
1176, 182, 119, -11, 1750, -26110, -215250, -577, -129, -166
1177, 170, 174, -19, 2100, -26810, -221410, -586, -97, -138
1178, 80, 360, -20, 2800, -29050, -233450, -583, -78, -123
1179, -484, 412, 377, -840, -31150, -238770, -585, -66, -115
1180, 645, 219, -77, 2450, -47670, -247870, -580, -40, -94
1181, 660, 371, -277, -4690, -38920, -251790, -574, -34, -81
1182, 722, 231, 266, -6160, -43050, -267540, -570, -4, -55
1183, 1212, -115, 56, -70, -68040, -281890, -585, 18, -51
1184, 2936, -139, -249, 8190, -99400, -292320, -580, 25, -28
1185, 918, 189, -516, -8330, -48790, -306810, -570, 52, 1
1186, 1206, 720, -57, -5950, -41020, -315560, -568, 79, 27
1187, 3997, -109, -3997, 450870, -972650, -15540, -561, 94, 114
1188, 3997, 3194, 3997, 513240, -1151920, 303030, -553, 93, 195
1189, 2335, 3997, 318, -272090, 481110, 149870, -568, 76, 153
1190, 494, 492, -3995, -30030, -120330, -14000, -561, 79, 172
1191, 771, -33, 16, -61880, -34580, 9380, -550, 82, 171
1192, 1232, -1138, -1049, 4130, -139930, 15190, -561, 88, 195
1193, 1466, -1133, 377, -10640, -36890, 16310, -552, 73, 189
1194, 368, -1339, -1784, -38640, 55440, 19950, -550, 84, 189
1195, 2584, 261, -451, 4690, -3150, -5180, -559, 72, 190
1196, 924, 102, -853, -32270, 115920, -4900, -562, 73, 193
1197, 495, -330, -1342, 5320, 19320, -3500, -561, 76, 180
1198, 1053, -136, 156, 12740, 9310, -9170, -558, 70, 186
1199, 556, -271, -526, -17290, 88690, -5390, -553, 78, 175
1200, 1009, 95, 266, -8050, 78890, -8470, -568, 73, 180
1201, 371, -43, -199, -3780, 66010, -2730, -556, 70, 177
1202, 474, 11, -168, 7350, 11200, -140, -558, 76, 177
1203, 733, 248, 233, 4620, -560, -560, -567, 69, 172
1204, 689, 205, 84, 2030, -20930, 4200, -564, 76, 186
1205, 660, -60, -320, -9660, -1750, 6020, -562, 67, 175
1206, 869, -123, -221, 5530, -44940, 6930, -568, 81, 183
1207, 1064, -184, -511, -5530, -19320, 5880, -559, 69, 183
1208, 1136, -205, -495, -9240, 7840, 3220, -565, 72, 171
1209, 976, -237, -510, 2730, -10990, 1960, -556, 73, 183
1210, 996, -204, -463, -980, 5670, 840, -559, 75, 177
1211, 1084, -105, -462, 5250, -1820, -280, -564, 64, 172
1212, 1139, -84, -479, -280, 13510, -1120, -565, 78, 181
1213, 850, -129, -386, -3990, 21770, -2310, -565, 76, 174
1214, 880, -70, -262, 5390, -3500, -2450, -552, 76, 187
1215, 910, -25, -277, -2870, 14420, -2380, -561, 69, 172
1216, 952, -12, -289, 2870, -3430, -1820, -558, 78, 184
1217, 790, -64, -283, 770, -8890, -420, -561, 75, 180
1218, 789, -64, -258, -2660, -1820, 280, -555, 78, 187
1219, 928, -57, -252, 3220, -12530, 560, -565, 69, 183
1220, 984, -97, -337, -2660, 5320, 630, -559, 84, 184
1221, 907, -118, -391, -2730, 5740, 700, -567, 75, 178
1222, 909, -71, -346, 3220, -8680, 630, -559, 87, 177
1223, 960, -45, -307, -1190, 4410, 210, -558, 72, 175
1224, 1040, -85, -348, 2590, -2730, -70, -556, 76, 184
1225, 999, -124, -401, -3220, 9660, -350, -556, 75, 177
1226, 879, -59, -328, -3080, 3920, -490, -556, 75, 183
1227, 921, -39, -288, 2660, -7910, -490, -564, 78, 180
1228, 956, -83, -308, -2800, 8400, -630, -561, 78, 186
1229, 972, -128, -382, 1750, -3010, -490, -562, 69, 180
1230, 880, -56, -328, 2100, -7070, -70, -562, 79, 181
1231, 877, -33, -259, -2100, 5250, -70, -559, 72, 184
1232, 950, -79, -334, 2730, -4340, 0, -565, 82, 177
1233, 982, -109, -340, -2380, 7140, -70, -556, 78, 180
1234, 916, -57, -301, -2450, 2590, 0, -550, 70, 178
1235, 900, -60, -341, 1470, -5530, -70, -552, 69, 180
1236, 953, -80, -292, -1400, 4270, -280, -549, 75, 178
1237, 995, -123, -402, 1400, -2170, -280, -564, 78, 180
1238, 974, -105, -351, -1960, 4550, -350, -562, 79, 183
1239, 884, -45, -264, -1610, 3920, -350, -562, 78, 186
1240, 914, -80, -344, 1610, -2240, -280, -561, 78, 186
1241, 965, -91, -301, -1120, 4410, -210, -568, 82, 186
1242, 966, -107, -406, 840, -2660, -210, -552, 70, 183
1243, 892, -67, -353, 560, -3290, -70, -550, 72, 184
1244, 923, -69, -279, -840, 1890, -70, -561, 73, 175
1245, 969, -112, -383, 910, -1470, -210, -567, 78, 189
1246, 985, -97, -340, -1050, 2450, -140, -556, 70, 184
1247, 906, -57, -294, -1190, 2030, -210, -558, 73, 181
1248, 908, -81, -344, 770, -1260, -210, -564, 73, 177
1249, 951, -86, -304, -490, 2590, -210, -567, 72, 177
1250, 966, -102, -384, 560, -1190, -280, -552, 73, 178
1251, 947, -71, -320, -1190, 1540, -210, -571, 78, 180
1252, 909, -68, -292, -770, 1470, -140, -570, 70, 177
1253, 941, -98, -356, 770, -1400, -140, -567, 76, 183
1254, 971, -91, -332, -700, 2030, -140, -549, 72, 180
1255, 957, -90, -378, 350, -1540, -140, -559, 82, 186
1256, 908, -80, -346, 490, -1540, -210, -564, 67, 180
1257, 935, -82, -306, -560, 2030, -210, -571, 81, 181
1258, 958, -96, -369, 700, -1260, -210, -562, 78, 183
1259, 960, -78, -328, -980, 1960, -210, -567, 73, 181
1260, 912, -70, -302, -910, 1610, -210, -568, 66, 181
1261, 923, -90, -350, 700, -1470, -140, -553, 82, 175
1262, 957, -85, -315, -560, 1960, -210, -562, 67, 189
1263, 957, -93, -377, 490, -1190, -210, -565, 81, 189
1264, 942, -73, -320, -980, 1680, -210, -558, 78, 189
1265, 926, -76, -300, -630, 1400, -210, -562, 82, 184
1266, 944, -94, -363, 560, -980, -210, -558, 69, 178
1267, 962, -81, -320, -560, 1610, -210, -561, 79, 177
1268, 940, -87, -375, 0, -770, -210, -562, 81, 181
1269, 915, -85, -355, 210, -840, -140, -561, 85, 178
1270, 944, -80, -305, -280, 1050, -140, -559, 75, 177
1271, 952, -93, -373, 210, -350, -210, -561, 81, 174
1272, 952, -76, -320, -560, 980, -210, -559, 75, 180
1273, 925, -72, -302, -420, 560, -210, -561, 66, 181
1274, 930, -91, -359, 140, -210, -140, -559, 75, 198
1275, 957, -81, -315, -280, 770, -210, -558, 84, 172
1276, 946, -90, -372, -140, 70, -210, -555, 78, 180
1277, 936, -74, -318, -490, 560, -210, -559, 79, 186
1278, 934, -77, -308, -210, 420, -210, -555, 76, 183
1279, 944, -92, -361, 0, 70, -210, -556, 78, 184
1280, 956, -79, -324, -280, 560, -210, -562, 70, 184
1281, 935, -85, -364, -280, 0, -140, -562, 79, 186
1282, 925, -87, -351, -140, 70, -140, -559, 79, 175
1283, 947, -82, -318, -70, 420, -210, -565, 87, 180
1284, 948, -90, -362, -70, 280, -210, -556, 78, 172
1285, 945, -77, -327, -350, 350, -210, -567, 70, 178
1286, 929, -78, -315, -210, 350, -210, -556, 79, 190
1287, 936, -89, -350, -70, 0, -210, -567, 76, 183
1288, 952, -82, -327, -210, 490, -210, -564, 75, 183
1289, 941, -86, -359, -280, 210, -210, -558, 81, 183
1290, 934, -76, -324, -420, 490, -210, -562, 73, 187
1291, 938, -80, -319, -140, 420, -210, -553, 79, 177
1292, 945, -89, -355, 0, 70, -210, -564, 75, 186
1293, 949, -80, -330, -350, 630, -140, -555, 78, 181
1294, 932, -84, -355, -280, 70, -210, -558, 67, 172
1295, 929, -87, -349, -70, 70, -140, -562, 82, 181
1296, 947, -82, -324, -210, 420, -210, -562, 75, 178
1297, 944, -87, -359, -210, 210, -140, -562, 78, 180
1298, 940, -78, -327, -350, 420, -140, -564, 70, 183
1299, 933, -79, -321, -280, 420, -280, -558, 73, 184
1300, 939, -87, -351, -70, 140, -210, -559, 69, 180
1301, 950, -81, -328, -210, 420, -210, -561, 70, 178
1302, 937, -85, -358, -280, 140, -140, -558, 79, 174
1303, 934, -77, -323, -420, 280, -140, -555, 73, 175
1304, 940, -80, -323, -70, 210, -210, -562, 75, 163
1305, 942, -87, -354, -210, 350, -210, -556, 85, 184
1306, 944, -79, -330, -210, 210, -210, -573, 79, 183
1307, 930, -85, -353, -350, 280, -210, -561, 75, 180
1308, 933, -87, -348, -210, 280, -210, -558, 75, 177
1309, 946, -81, -327, -70, 210, -210, -562, 75, 181
1310, 940, -86, -355, -350, 490, -140, -552, 72, 180
1311, 938, -78, -328, -280, 70, -210, -567, 72, 177
1312, 936, -81, -325, -140, 140, -140, -558, 81, 180
1313, 940, -87, -349, -280, 420, -210, -552, 75, 181
1314, 946, -81, -333, -210, 210, -210, -568, 75, 190
1315, 934, -85, -350, -420, 420, -210, -565, 82, 186
1316, 934, -79, -328, -280, 70, -210, -556, 82, 187
1317, 941, -81, -329, -70, 140, -140, -556, 78, 177
1318, 940, -86, -350, -210, 420, -210, -559, 82, 186
1319, 940, -80, -333, -280, 140, -140, -550, 82, 177
1320, 931, -84, -347, -280, 350, -210, -559, 81, 181
1321, 937, -86, -345, -210, 420, -210, -562, 78, 174
1322, 944, -82, -332, -140, 210, -210, -556, 78, 180
1323, 939, -85, -350, -350, 350, -210, -562, 75, 177
1324, 936, -80, -331, -210, 140, -210, -553, 79, 181
1325, 938, -81, -331, -70, 210, -210, -561, 64, 180
1326, 940, -84, -346, -210, 350, -210, -562, 79, 180
1327, 942, -81, -335, -280, 210, -210, -556, 82, 183
1328, 934, -84, -347, -350, 350, -210, -558, 78, 178
1329, 934, -81, -332, -280, 280, -210, -562, 70, 183
1330, 941, -82, -333, -140, 280, -140, -558, 81, 187
1331, 939, -85, -348, -210, 490, -140, -556, 72, 183
1332, 938, -81, -334, -280, 140, -210, -550, 72, 178
1333, 932, -84, -345, -350, 350, -210, -558, 81, 180
1334, 938, -85, -345, -280, 280, -210, -553, 78, 181
1335, 943, -81, -334, -280, 210, -280, -558, 75, 183
1336, 936, -84, -347, -280, 350, -210, -550, 69, 190
1337, 936, -81, -333, -280, 280, -210, -558, 73, 178
1338, 938, -82, -332, -210, 140, -210, -565, 76, 184
1339, 938, -85, -345, -280, 490, -210, -559, 63, 187
1340, 941, -82, -338, -210, 70, -210, -558, 66, 184
1341, 936, -82, -343, -350, 350, -210, -561, 75, 180
1342, 934, -81, -335, -210, 350, -210, -562, 66, 177
1343, 941, -82, -335, -210, 420, -210, -564, 76, 178
1344, 938, -84, -347, -280, 210, -210, -564, 76, 180
1345, 937, -81, -333, -280, 280, -210, -555, 75, 178
1346, 931, -84, -344, -280, 350, -210, -559, 82, 180
1347, 939, -84, -344, -280, 490, -210, -562, 78, 187
1348, 940, -82, -335, -210, 210, -210, -553, 82, 183
1349, 936, -84, -345, -350, 490, -210, -562, 81, 190
1350, 934, -82, -335, -140, 210, -210, -559, 79, 183
1351, 940, -81, -335, -140, 140, -210, -567, 75, 184
1352, 938, -84, -344, -280, 350, -210, -550, 85, 187
1353, 938, -82, -337, -280, 210, -210, -561, 76, 177
1354, 934, -84, -342, -280, 420, -210, -556, 76, 190
1355, 935, -83, -336, -140, 280, -210, -552, 73, 183
1356, 940, -83, -337, -210, 210, -210, -556, 82, 177
1357, 937, -83, -344, -210, 280, -210, -565, 76, 178
1358, 936, -82, -336, -280, 280, -210, -561, 79, 187
1359, 934, -84, -341, -210, 420, -140, -556, 76, 183
1360, 938, -84, -343, -280, 350, -210, -561, 70, 181
1361, 939, -81, -337, -280, 210, -210, -559, 70, 189
1362, 936, -83, -344, -280, 490, -210, -571, 67, 183
1363, 936, -82, -336, -280, 210, -140, -556, 75, 184
1364, 939, -82, -336, -210, 210, -210, -558, 76, 187
1365, 937, -83, -343, -280, 350, -210, -549, 73, 187
1366, 938, -81, -336, -210, 280, -210, -552, 75, 184
1367, 934, -83, -341, -280, 350, -210, -564, 73, 184
1368, 937, -82, -337, -210, 280, -210, -559, 78, 180
1369, 940, -82, -338, -210, 210, -210, -556, 73, 186
1370, 937, -83, -342, -280, 350, -210, -559, 76, 186
1371, 936, -81, -337, -210, 280, -210, -564, 73, 181
1372, 935, -84, -342, -210, 350, -210, -561, 82, 184
1373, 938, -84, -342, -280, 350, -210, -552, 70, 184
1374, 938, -82, -338, -210, 280, -210, -552, 84, 192
1375, 935, -84, -341, -350, 350, -210, -550, 72, 180
1376, 936, -82, -336, -210, 280, -210, -553, 78, 181
1377, 936, -81, -337, -280, 140, -140, -562, 70, 183
1378, 936, -86, -340, -280, 70, -210, -558, 79, 180
1379, 943, -84, -341, -140, -70, -280, -555, 76, 189
1380, 934, -82, -341, -350, 840, -210, -559, 79, 186
1381, 940, -83, -342, 0, 70, -210, -550, 85, 181
1382, 932, -84, -345, -280, 700, -280, -556, 82, 183
1383, 940, -79, -332, -70, -280, -210, -558, 73, 180
1384, 932, -80, -340, -490, 910, -210, -559, 82, 183
1385, 934, -83, -343, -70, -560, -140, -561, 75, 187
1386, 934, -87, -349, -210, 0, -140, -565, 79, 193
1387, 941, -80, -331, -210, -140, -140, -565, 79, 180
1388, 935, -84, -346, -420, 420, -210, -558, 79, 177
1389, 937, -82, -337, -210, -70, -140, -559, 78, 177
1390, 938, -84, -341, -140, -70, -140, -561, 72, 177
1391, 940, -84, -340, -350, 350, -140, -555, 84, 180
1392, 937, -84, -341, -280, 350, -210, -562, 78, 187
1393, 938, -85, -342, -210, 490, -210, -570, 73, 193
1394, 939, -84, -340, -140, 700, -210, -550, 84, 181
1395, 937, -82, -338, -210, 490, -210, -556, 73, 187
1396, 934, -82, -339, -210, 420, -210, -556, 66, 180
1397, 935, -82, -337, -210, 350, -210, -549, 88, 177
1398, 936, -84, -341, -210, 280, -210, -559, 72, 184
1399, 937, -82, -341, -280, 140, -210, -553, 81, 190
1400, 937, -82, -338, -280, 350, -210, -555, 72, 187
1401, 934, -85, -344, -210, 420, -210, -550, 76, 187
1402, 937, -82, -338, -210, 140, -210, -562, 73, 183
1403, 936, -81, -337, -280, 210, -140, -553, 72, 181
1404, 935, -84, -340, -280, 210, -140, -559, 75, 187
1405, 936, -83, -338, -280, 0, -210, -558, 70, 187
1406, 938, -84, -342, -280, 210, -210, -567, 76, 184
1407, 939, -84, -339, -210, 350, -210, -561, 78, 183
1408, 938, -83, -338, -210, 350, -140, -556, 76, 186
1409, 936, -82, -342, -210, 560, -210, -553, 76, 174
1410, 937, -81, -337, -140, 210, -210, -561, 73, 184
1411, 936, -83, -340, -350, 420, -210, -561, 78, 183
1412, 939, -84, -338, -210, 490, -210, -567, 78, 177
1413, 937, -84, -344, -210, 560, -280, -558, 76, 184
1414, 939, -82, -339, -140, 420, -210, -561, 75, 189
1415, 937, -83, -339, -280, 910, -280, -556, 85, 180
1416, 938, -80, -335, -210, 490, -210, -562, 76, 181
1417, 937, -81, -342, -210, 350, -210, -556, 73, 178
1418, 937, -82, -336, -280, 280, -210, -559, 76, 184
1419, 937, -85, -344, -280, 280, -140, -567, 73, 184
1420, 939, -83, -337, -210, -70, -140, -550, 72, 180
1421, 937, -82, -339, -140, 70, -210, -556, 78, 180
1422, 935, -83, -341, -280, 560, -140, -553, 75, 183
1423, 937, -83, -341, -140, 70, -140, -552, 84, 183
1424, 938, -80, -336, -210, 140, -140, -559, 67, 181
1425, 934, -78, -335, -350, -420, -70, -561, 73, 171
1426, 932, -80, -339, -420, -630, -70, -564, 75, 189
1427, 937, -82, -338, -350, -1120, 0, -556, 78, 174
1428, 939, -85, -340, -420, -560, -70, -549, 67, 183
1429, 943, -87, -342, -280, -140, -70, -565, 75, 183
1430, 938, -87, -349, -280, 210, -70, -553, 75, 186
1431, 940, -82, -339, -70, -210, -70, -553, 70, 180
1432, 935, -81, -339, -350, 420, -70, -558, 75, 190
1433, 933, -81, -342, -210, -210, -70, -558, 82, 181
1434, 930, -80, -342, -420, -420, 0, -564, 69, 184
1435, 935, -81, -336, -280, -980, 0, -561, 73, 177
1436, 933, -85, -339, -490, -420, -70, -559, 70, 180
1437, 933, -87, -344, -350, -770, -70, -556, 82, 177
1438, 935, -86, -345, -350, -210, -70, -558, 73, 192
1439, 938, -84, -341, -280, -210, -140, -561, 72, 175
1440, 936, -86, -344, -350, 280, -140, -550, 75, 187
1441, 938, -86, -345, -210, -70, -140, -553, 79, 189
1442, 935, -83, -344, -210, 350, -140, -561, 75, 175
1443, 935, -83, -341, -210, 70, -210, -564, 75, 177
1444, 933, -84, -340, -350, 630, -210, -550, 75, 190
1445, 934, -88, -345, -140, 280, -210, -565, 69, 183
1446, 937, -85, -339, -210, 630, -210, -559, 78, 177
1447, 938, -84, -340, -140, 560, -280, -567, 76, 186
1448, 936, -85, -342, -280, 1050, -280, -562, 78, 190
1449, 935, -84, -343, -140, 910, -280, -558, 78, 184
1450, 936, -82, -340, -140, 700, -280, -558, 76, 181
1451, 934, -82, -341, -210, 560, -350, -561, 82, 181
1452, 934, -82, -338, -210, 630, -350, -550, 76, 183
1453, 933, -83, -341, -210, 630, -280, -556, 75, 190
1454, 937, -82, -338, -140, 420, -280, -559, 78, 177
1455, 934, -83, -342, -280, 350, -280, -558, 78, 187
1456, 934, -81, -338, -210, 630, -280, -562, 72, 183
1457, 935, -82, -341, -280, 350, -280, -567, 78, 186
1458, 940, -85, -342, -210, 140, -280, -553, 75, 187
1459, 941, -87, -342, -210, 490, -210, -555, 79, 184
1460, 942, -84, -342, -70, 700, -280, -553, 85, 180
1461, 936, -83, -344, -280, 1330, -350, -559, 73, 190
1462, 935, -81, -340, -140, 770, -350, -556, 82, 181
1463, 929, -79, -333, -350, 1050, -350, -558, 78, 183
1464, 933, -78, -333, -420, 490, -210, -559, 66, 192
1465, 936, -84, -347, -210, -70, -210, -556, 75, 183
1466, 938, -83, -335, -350, 350, -140, -564, 81, 190
1467, 935, -89, -355, -280, 420, -210, -561, 67, 186
1468, 935, -86, -346, -560, 1470, -280, -558, 76, 181
1469, 940, -86, -345, 140, -70, -280, -555, 78, 181
1470, 937, -82, -335, -490, 1540, -280, -564, 64, 186
1471, 930, -83, -349, -70, 210, -210, -562, 70, 190
1472, 943, -76, -326, 0, 0, -210, -562, 76, 186
1473, 936, -83, -337, 140, -770, -210, -558, 70, 192
1474, 938, -85, -340, -490, 980, -210, -561, 84, 192
1475, 937, -85, -349, 0, -140, -140, -561, 75, 171
1476, 945, -82, -334, -210, 560, -210, -556, 64, 189
1477, 937, -82, -336, -70, 210, -210, -559, 78, 178
1478, 934, -81, -341, -350, 840, -210, -559, 81, 187
1479, 934, -80, -339, -140, 70, -210, -558, 73, 181
1480, 935, -81, -336, -350, 420, -210, -561, 85, 184
1481, 938, -83, -339, -210, 0, -210, -561, 73, 186
1482, 938, -83, -342, -280, 280, -140, -567, 72, 180
1483, 938, -85, -342, -210, 280, -210, -561, 79, 184
1484, 938, -84, -341, -210, 420, -210, -562, 63, 193
1485, 936, -83, -341, -140, 490, -210, -564, 72, 177
1486, 936, -81, -339, -280, 420, -210, -561, 76, 187
1487, 935, -83, -342, -210, 350, -210, -559, 81, 184
1488, 936, -83, -340, -210, 210, -210, -562, 81, 184
1489, 936, -84, -340, -280, 280, -210, -559, 69, 187
1490, 937, -83, -340, -350, 420, -210, -556, 84, 180
1491, 937, -84, -341, -140, 280, -210, -561, 78, 184
1492, 937, -83, -340, -210, 280, -210, -556, 79, 183
1493, 937, -84, -341, -280, 420, -140, -565, 75, 175
1494, 936, -83, -340, -210, 280, -210, -559, 61, 190
1495, 936, -83, -341, -210, 280, -210, -558, 78, 180
1496, 935, -83, -340, -210, 350, -210, -558, 81, 180
1497, 936, -84, -341, -280, 280, -210, -552, 69, 190
1498, 936, -82, -340, -280, 350, -140, -555, 78, 187
1499, 936, -83, -340, -280, 280, -210, -558, 78, 184
1500, 937, -83, -341, -140, 350, -210, -564, 70, 186
1501, 936, -83, -341, -280, 280, -210, -556, 76, 186
1502, 936, -83, -341, -280, 350, -210, -552, 85, 189
1503, 936, -83, -341, -280, 280, -210, -556, 70, 177
1504, 936, -83, -340, -280, 350, -210, -559, 82, 180
1505, 936, -83, -341, -280, 350, -210, -559, 67, 183
1506, 937, -83, -340, -210, 280, -210, -559, 75, 186
1507, 936, -83, -340, -280, 280, -210, -556, 75, 186
1508, 936, -83, -340, -280, 350, -210, -555, 78, 189
1509, 937, -83, -342, -280, 350, -140, -562, 75, 184
1510, 937, -83, -341, -140, 350, -210, -558, 79, 195
1511, 936, -84, -341, -210, 350, -140, -558, 72, 190
1512, 936, -83, -341, -210, 350, -140, -564, 85, 190
1513, 937, -82, -340, -210, 350, -210, -558, 70, 180
1514, 936, -83, -341, -280, 420, -210, -555, 82, 190
1515, 936, -83, -341, -280, 280, -210, -565, 73, 181
1516, 936, -82, -340, -140, 280, -210, -553, 72, 181
1517, 936, -83, -341, -280, 280, -210, -561, 75, 181
1518, 936, -83, -341, -280, 350, -210, -562, 85, 196
1519, 936, -83, -341, -210, 350, -210, -556, 73, 192
1520, 936, -83, -340, -140, 280, -210, -565, 75, 186
1521, 937, -83, -341, -210, 280, -140, -552, 72, 180
1522, 936, -84, -341, -280, 350, -210, -556, 78, 180
1523, 936, -84, -341, -280, 280, -210, -559, 69, 190
1524, 936, -83, -341, -210, 280, -280, -556, 79, 187
1525, 936, -83, -340, -210, 350, -210, -558, 78, 183
1526, 935, -84, -341, -280, 280, -210, -561, 81, 192
1527, 936, -83, -341, -280, 280, -210, -556, 69, 184
1528, 936, -83, -341, -280, 350, -210, -564, 78, 180
1529, 936, -83, -341, -280, 280, -210, -564, 69, 175
1530, 936, -83, -340, -210, 280, -140, -559, 76, 183
1531, 936, -83, -341, -210, 350, -280, -558, 69, 181
1532, 937, -83, -341, -210, 280, -210, -559, 81, 174
1533, 937, -83, -341, -280, 280, -210, -558, 70, 180
1534, 937, -84, -341, -210, 350, -140, -549, 84, 186
1535, 937, -83, -342, -280, 280, -210, -549, 67, 184
1536, 936, -83, -341, -280, 350, -210, -555, 67, 184
1537, 936, -83, -341, -280, 280, -210, -564, 79, 181
1538, 935, -83, -340, -210, 350, -210, -552, 66, 186
1539, 936, -83, -342, -210, 280, -140, -567, 75, 186
1540, 936, -83, -341, -280, 280, -210, -561, 69, 186
1541, 936, -83, -342, -280, 280, -210, -553, 78, 181
1542, 936, -83, -342, -210, 280, -210, -553, 75, 180
1543, 936, -83, -342, -280, 280, -210, -561, 76, 193
1544, 937, -83, -341, -210, 350, -210, -565, 75, 175
1545, 936, -84, -340, -210, 350, -210, -570, 79, 187
1546, 936, -83, -341, -280, 280, -210, -562, 72, 186
1547, 936, -83, -341, -140, 350, -210, -562, 78, 184
1548, 936, -83, -340, -210, 350, -140, -562, 81, 175
1549, 936, -83, -340, -210, 280, -210, -561, 88, 181
1550, 936, -84, -340, -280, 350, -210, -556, 79, 175
1551, 936, -84, -341, -280, 280, -210, -559, 82, 171
1552, 937, -83, -340, -280, 350, -210, -568, 82, 181
1553, 937, -84, -340, -210, 280, -210, -556, 72, 193
1554, 936, -83, -341, -210, 280, -210, -559, 79, 187
1555, 936, -82, -340, -280, 350, -210, -553, 69, 181
1556, 936, -83, -341, -210, 280, -210, -556, 72, 183
1557, 935, -83, -341, -280, 350, -210, -558, 69, 186
1558, 936, -83, -341, -210, 280, -210, -562, 73, 189
1559, 936, -83, -343, -280, 280, -210, -558, 73, 184
1560, 936, -83, -340, -280, 350, -210, -567, 73, 172
1561, 936, -84, -342, -210, 350, -210, -555, 76, 180
1562, 937, -83, -340, -210, 350, -210, -552, 72, 184
1563, 936, -83, -341, -280, 350, -210, -565, 76, 174
1564, 936, -82, -341, -280, 280, -210, -562, 76, 175
1565, 936, -83, -341, -210, 280, -210, -568, 82, 184
1566, 938, -83, -339, -210, 210, -210, -562, 64, 186
1567, 936, -84, -342, -280, 420, -210, -561, 85, 186
1568, 937, -83, -342, -280, 350, -210, -558, 69, 190
1569, 937, -83, -340, -210, 280, -280, -556, 79, 183
1570, 935, -83, -343, -350, 420, -210, -562, 75, 180
1571, 935, -84, -341, -210, 350, -140, -558, 79, 184
1572, 937, -83, -342, -210, 280, -210, -558, 70, 184
1573, 935, -83, -340, -280, 420, -140, -556, 87, 184
1574, 936, -84, -341, -210, 280, -210, -565, 69, 177
1575, 937, -83, -341, -210, 140, -210, -555, 72, 181
1576, 937, -83, -342, -210, 420, -210, -564, 82, 195
1577, 936, -83, -342, -280, 350, -210, -562, 75, 184
1578, 937, -82, -340, -210, 280, -210, -558, 72, 195
1579, 937, -83, -341, -280, 350, -210, -550, 79, 175
1580, 936, -84, -342, -210, 350, -210, -555, 72, 178
1581, 936, -83, -340, -280, 280, -140, -558, 82, 180
1582, 936, -83, -340, -280, 350, -210, -561, 70, 186
1583, 936, -83, -342, -280, 350, -210, -559, 81, 183
1584, 935, -84, -341, -280, 210, -210, -556, 75, 183
1585, 936, -83, -341, -280, 280, -140, -555, 84, 189
1586, 936, -84, -342, -210, 280, -210, -565, 75, 186
1587, 936, -83, -341, -210, 350, -140, -558, 76, 178
1588, 937, -83, -341, -280, 350, -140, -559, 69, 181
1589, 936, -83, -341, -280, 420, -210, -559, 78, 183
1590, 936, -83, -341, -210, 350, -210, -561, 75, 183
1591, 936, -84, -341, -210, 350, -140, -558, 85, 180
1592, 937, -83, -341, -210, 350, -210, -565, 81, 183
1593, 936, -83, -340, -280, 350, -210, -553, 72, 178
1594, 937, -84, -341, -210, 350, -210, -556, 82, 181
1595, 937, -84, -341, -280, 280, -210, -556, 73, 184
1596, 936, -83, -341, -210, 280, -210, -567, 76, 187
1597, 936, -83, -341, -280, 280, -210, -556, 73, 184
1598, 936, -83, -341, -280, 350, -210, -553, 66, 184
1599, 936, -83, -341, -280, 350, -210, -556, 75, 184
1600, 935, -83, -341, -280, 280, -140, -555, 81, 181
1601, 937, -83, -341, -280, 280, -210, -570, 69, 184
1602, 937, -83, -341, -280, 350, -210, -558, 73, 184
1603, 936, -83, -342, -210, 280, -210, -559, 70, 190
1604, 937, -83, -341, -210, 210, -280, -558, 75, 184
1605, 936, -83, -340, -210, 350, -210, -558, 79, 189
1606, 936, -83, -340, -280, 280, -210, -556, 75, 190
1607, 936, -83, -342, -280, 280, -210, -562, 75, 184
1608, 937, -83, -341, -280, 350, -210, -559, 73, 181
1609, 937, -84, -340, -210, 350, -210, -555, 69, 183
1610, 936, -84, -341, -280, 210, -210, -562, 78, 187
1611, 937, -84, -341, -280, 350, -210, -573, 67, 187
1612, 936, -83, -342, -280, 280, -210, -564, 75, 180
1613, 937, -83, -341, -210, 420, -210, -550, 76, 181
1614, 937, -83, -341, -280, 280, -140, -564, 78, 187
1615, 936, -83, -340, -210, 280, -210, -562, 82, 166
1616, 936, -83, -341, -210, 350, -210, -559, 78, 183
1617, 936, -83, -341, -280, 280, -210, -556, 78, 174
1618, 936, -83, -341, -280, 350, -280, -561, 73, 180
1619, 936, -84, -341, -280, 350, -210, -561, 78, 186
1620, 936, -83, -340, -280, 280, -210, -567, 81, 186
1621, 936, -84, -340, -280, 350, -140, -559, 69, 183
1622, 936, -83, -341, -210, 280, -210, -561, 79, 184
1623, 936, -82, -343, -210, 350, -210, -562, 67, 183
1624, 936, -84, -342, -280, 490, -210, -561, 73, 186
1625, 936, -84, -341, -210, 350, -140, -559, 70, 186
1626, 936, -83, -340, -210, 280, -210, -561, 76, 177
1627, 936, -83, -340, -280, 280, -210, -564, 75, 166
1628, 937, -83, -342, -280, 350, -210, -556, 87, 183
1629, 937, -84, -341, -210, 350, -140, -555, 75, 186
1630, 936, -84, -341, -210, 350, -210, -559, 79, 181
1631, 936, -83, -341, -210, 350, -140, -561, 67, 186
1632, 937, -83, -342, -210, 350, -210, -559, 73, 181
1633, 935, -83, -341, -210, 280, -210, -556, 76, 184
1634, 936, -83, -342, -280, 280, -210, -562, 76, 177
1635, 936, -83, -342, -210, 350, -210, -553, 81, 177
1636, 936, -83, -342, -210, 280, -210, -561, 76, 181
1637, 936, -83, -342, -210, 350, -210, -556, 75, 187
1638, 936, -83, -341, -210, 350, -210, -562, 81, 184
1639, 936, -83, -341, -210, 350, -210, -553, 72, 186
1640, 935, -83, -342, -280, 350, -140, -558, 75, 189
1641, 937, -83, -341, -280, 280, -210, -556, 76, 193
1642, 936, -84, -341, -210, 350, -210, -552, 76, 187
1643, 935, -83, -341, -280, 280, -210, -555, 79, 186
1644, 936, -83, -342, -280, 280, -210, -556, 84, 177
1645, 936, -83, -340, -280, 350, -210, -562, 79, 183
1646, 936, -84, -341, -280, 350, -210, -561, 70, 183
1647, 936, -83, -341, -210, 350, -280, -561, 72, 186
1648, 936, -83, -341, -210, 280, -210, -561, 72, 186
1649, 936, -84, -341, -210, 350, -210, -564, 72, 172
1650, 936, -84, -341, -210, 280, -210, -556, 78, 187
1651, 936, -83, -340, -280, 280, -210, -568, 72, 184
1652, 936, -84, -342, -350, 280, -210, -559, 76, 180
1653, 936, -84, -341, -280, 350, -140, -561, 76, 187
1654, 936, -84, -342, -280, 280, -210, -556, 79, 174
1655, 936, -83, -341, -350, 350, -210, -555, 73, 190
1656, 936, -83, -341, -280, 350, -210, -562, 82, 190
1657, 936, -83, -341, -280, 350, -210, -562, 85, 190
1658, 936, -84, -341, -280, 420, -210, -567, 79, 183
1659, 937, -83, -341, -210, 350, -210, -558, 66, 180
1660, 937, -84, -340, -280, 280, -210, -562, 69, 186
1661, 936, -84, -341, -280, 280, -210, -565, 70, 183
1662, 936, -84, -340, -210, 350, -210, -547, 78, 189
1663, 936, -83, -342, -280, 280, -210, -564, 76, 186
1664, 936, -83, -341, -280, 350, -210, -565, 85, 180
1665, 936, -84, -342, -280, 350, -210, -574, 76, 183
1666, 936, -83, -341, -280, 350, -280, -558, 73, 178
1667, 936, -83, -341, -210, 350, -210, -564, 70, 180
1668, 936, -84, -341, -210, 350, -210, -549, 73, 186
1669, 936, -83, -341, -210, 350, -140, -558, 70, 186
1670, 936, -83, -341, -280, 350, -210, -556, 73, 181
1671, 936, -84, -342, -280, 350, -210, -562, 73, 184
1672, 877, -107, -425, 140, -980, -70, -567, 81, 189
1673, 966, -71, -313, 13160, -35700, 0, -562, 75, 189
1674, 1078, -31, -135, -10010, 26950, -350, -564, 88, 181
1675, 702, -171, -681, 770, -2100, -70, -564, 70, 190
1676, 854, -116, -453, -7000, 18620, -140, -558, 78, 192
1677, 905, -92, -390, 7280, -20300, -140, -561, 72, 189
1678, 1030, -51, -216, -840, 1750, -140, -552, 72, 190
1679, 834, -120, -479, -210, 280, -140, -564, 78, 187
1680, 1008, -59, -254, 4270, -11900, -140, -559, 82, 192
1681, 915, -90, -378, 700, -2100, -280, -559, 67, 184
1682, 987, -64, -268, -3290, 8470, -280, -553, 67, 184
1683, 894, -98, -397, -4270, 11130, -350, -556, 79, 187
1684, 949, -79, -328, -1960, 4900, -280, -564, 73, 186
1685, 920, -91, -369, -700, 1260, -210, -562, 76, 186
1686, 944, -81, -328, -630, 1120, -210, -562, 70, 184
1687, 926, -89, -360, -490, 840, -210, -556, 73, 186
1688, 946, -80, -330, 0, -280, -210, -559, 61, 175
1689, 934, -84, -344, 0, -560, -210, -561, 70, 186
1690, 940, -81, -335, -490, 1050, -210, -558, 75, 183
1691, 930, -85, -350, -280, 350, -140, -556, 75, 180
1692, 939, -82, -333, -140, 210, -140, -562, 76, 180
1693, 934, -86, -347, -350, 840, -140, -553, 81, 186
1694, 938, -83, -342, -350, 630, -210, -553, 76, 181
1695, 934, -84, -343, -210, 280, -210, -559, 78, 183
1696, 936, -85, -346, -140, 280, -210, -568, 70, 178
1697, 933, -87, -352, 560, -1400, -140, -565, 87, 181
1698, 938, -80, -335, 3780, -10080, -70, -568, 73, 186
1699, 954, -76, -318, 350, -1120, -210, -559, 75, 187
1700, 895, -98, -402, 3570, -9590, -140, -556, 67, 186
1701, 976, -66, -279, 2310, -6510, -140, -555, 73, 175
1702, 941, -78, -330, 0, -420, -210, -556, 79, 174
1703, 945, -80, -332, -3220, 8330, -280, -561, 79, 184
1704, 916, -91, -367, -2030, 4970, -280, -549, 85, 187
1705, 938, -85, -345, -700, 1260, -210, -555, 78, 192
1706, 942, -81, -334, -1470, 3500, -210, -558, 78, 181
1707, 942, -81, -334, -1050, 2240, -210, -567, 78, 181
1708, 927, -87, -354, -1260, 3010, -210, -556, 75, 180
1709, 937, -82, -340, -560, 1190, -210, -558, 76, 189
1710, 936, -83, -342, -1050, 2240, -210, -556, 75, 181
1711, 938, -82, -337, -1400, 3570, -210, -558, 85, 183
1712, 924, -88, -358, -980, 2240, -210, -552, 82, 177
1713, 939, -82, -337, -210, 140, -210, -561, 85, 180
1714, 938, -84, -340, -770, 1540, -140, -561, 69, 189
1715, 939, -82, -337, -490, 910, -210, -558, 82, 181
1716, 934, -85, -344, -280, 490, -210, -562, 76, 181
1717, 938, -83, -338, -420, 700, -210, -568, 84, 187
1718, 938, -83, -340, -630, 1400, -140, -552, 66, 186
1719, 938, -83, -339, -840, 2240, -140, -555, 79, 178
1720, 938, -83, -338, -630, 1190, -140, -564, 81, 174
1721, 937, -82, -339, -700, 1470, -210, -558, 78, 181
1722, 936, -83, -340, -700, 1680, -210, -564, 76, 181
1723, 929, -86, -350, -210, 490, -210, -559, 76, 187
1724, 926, -87, -355, -630, 1190, -210, -558, 81, 189
1725, 942, -80, -332, -350, 560, -140, -561, 79, 183
1726, 930, -86, -349, -210, 490, -140, -553, 78, 183
1727, 945, -81, -331, -210, 350, -140, -552, 76, 178
1728, 954, -77, -316, 1400, -4200, -140, -564, 78, 190
1729, 935, -82, -341, 140, -560, -210, -564, 76, 183
1730, 936, -83, -340, 140, -630, -140, -567, 72, 181
1731, 927, -87, -355, 560, -1820, -140, -553, 75, 184
1732, 941, -82, -336, 1400, -3990, -140, -556, 79, 181
1733, 945, -81, -333, 2730, -7280, -140, -556, 82, 189
1734, 927, -87, -357, 1680, -4480, -70, -559, 81, 181
1735, 939, -82, -340, 2590, -6860, -140, -553, 67, 178
1736, 930, -86, -352, 2170, -5950, -70, -555, 84, 187
1737, 927, -86, -354, 1400, -3780, -140, -556, 69, 172
1738, 935, -83, -342, 1820, -5110, -140, -556, 78, 184
1739, 913, -91, -375, 3150, -9030, -210, -558, 64, 177
1740, 962, -74, -306, 2100, -6090, -280, -561, 82, 189
1741, 948, -79, -331, 2870, -7910, -350, -556, 72, 189
1742, 924, -88, -362, 1190, -3710, -350, -555, 75, 189
1743, 932, -85, -355, 3010, -8540, -280, -555, 78, 178
1744, 959, -75, -315, 770, -2450, -280, -559, 72, 186
1745, 928, -87, -358, -770, 1610, -210, -553, 66, 195
1746, 944, -82, -337, -1540, 3780, -210, -561, 76, 187
1747, 924, -90, -365, -1400, 3780, -140, -564, 70, 183
1748, 950, -79, -329, -1540, 4060, -140, -561, 70, 177
1749, 934, -86, -352, -3710, 9660, -140, -553, 73, 181
1750, 929, -85, -354, -1820, 4200, -210, -558, 72, 193
1751, 929, -84, -349, -1260, 2800, -210, -565, 72, 184
1752, 922, -88, -363, -630, 1050, -210, -556, 81, 181
1753, 933, -84, -347, -420, 980, -210, -555, 69, 181
1754, 953, -79, -325, -2520, 6300, -140, -555, 75, 192
1755, 933, -83, -351, -2310, 5810, -70, -556, 72, 183
1756, 936, -86, -346, -2940, 7630, -140, -562, 75, 178
1757, 912, -93, -376, -1330, 3570, -210, -556, 88, 181
1758, 948, -79, -327, -840, 2170, -280, -556, 76, 186
1759, 937, -83, -340, -350, 910, -280, -553, 78, 180
1760, 929, -88, -355, -490, 1260, -280, -549, 79, 184
1761, 929, -86, -352, 420, -1120, -280, -561, 67, 186
1762, 940, -82, -342, 70, -210, -350, -559, 79, 181
1763, 948, -80, -328, -1400, 3220, -210, -562, 73, 183
1764, 925, -88, -361, -1750, 4270, -140, -559, 82, 181
1765, 929, -86, -350, -910, 1750, -140, -568, 73, 186
1766, 929, -86, -353, -280, 210, -210, -552, 81, 193
1767, 936, -83, -343, 980, -3360, -140, -558, 72, 180
1768, 935, -83, -343, 770, -2800, -140, -561, 75, 190
1769, 940, -82, -340, 280, -1400, -140, -556, 73, 184
1770, 934, -85, -346, 140, -980, -140, -555, 79, 196
1771, 939, -84, -341, 70, -350, -140, -564, 67, 189
1772, 930, -84, -351, -700, 1400, -140, -568, 78, 180
1773, 932, -86, -348, -420, 770, -140, -555, 78, 189
1774, 932, -84, -346, -210, 210, -140, -558, 78, 187
1775, 936, -82, -342, -280, 350, -210, -565, 73, 177
1776, 937, -82, -340, -1610, 3710, -210, -558, 67, 180
1777, 941, -82, -337, -1890, 4690, -280, -559, 70, 187
1778, 934, -85, -346, -2380, 5880, -280, -552, 82, 178
1779, 936, -82, -342, -2660, 6650, -280, -556, 78, 178
1780, 930, -86, -350, -2660, 6510, -280, -562, 82, 192
1781, 935, -84, -343, -2170, 5390, -210, -546, 73, 183
1782, 926, -88, -356, -1680, 3990, -210, -556, 82, 183
1783, 938, -83, -340, -840, 2100, -210, -561, 70, 187
1784, 935, -84, -344, -1120, 2870, -280, -558, 79, 177
1785, 936, -84, -341, -700, 1540, -210, -561, 75, 184
1786, 945, -80, -328, -1050, 2660, -210, -561, 82, 178
1787, 939, -81, -334, -2100, 5320, -210, -558, 81, 175
1788, 940, -81, -332, -2310, 5880, -280, -558, 84, 183
1789, 936, -84, -338, -3080, 7770, -210, -562, 76, 177
1790, 940, -83, -335, -2800, 7140, -210, -559, 79, 183
1791, 947, -83, -332, -3080, 7840, 0, -562, 70, 172
1792, 985, -83, -325, -3500, 9100, 1820, -565, 79, 177
1793, 926, -85, -339, -5880, 15680, 7420, -561, 79, 177
1794, 917, -85, -342, -4690, 12530, 5390, -562, 78, 178
1795, 935, -82, -328, -4270, 11270, 3710, -573, 75, 172
1796, 933, -82, -336, -3780, 10290, 2450, -559, 84, 177
1797, 754, 105, -463, -1050, 4340, -9240, -552, 81, 171
1798, 957, -133, -354, -7840, 20300, -5740, -558, 76, 169
1799, 945, -80, -334, -6020, 15400, 7000, -573, 76, 171
1800, 939, -74, -327, -5600, 14700, 6090, -562, 85, 177
1801, 920, -62, -361, -3010, 8050, 1540, -558, 73, 174
1802, 928, -96, -350, -6020, 14840, 5460, -559, 76, 174
1803, 938, -76, -309, -4200, 10360, 7490, -559, 75, 168
1804, 913, -79, -322, -4480, 11200, 8750, -559, 87, 166
1805, 914, -81, -329, -3220, 8400, 7420, -562, 79, 175
1806, 929, -82, -321, -1400, 3360, 4340, -565, 88, 165
1807, 928, -83, -321, -490, 1190, 3290, -564, 60, 166
1808, 931, -82, -318, 280, -910, 2450, -567, 87, 172
1809, 936, -80, -315, 770, -2380, 1680, -556, 72, 174
1810, 938, -81, -310, 980, -2940, 1120, -568, 85, 169
1811, 938, -83, -317, 1190, -3640, 210, -561, 70, 171
1812, 942, -83, -317, 1680, -4830, 0, -556, 78, 174
1813, 944, -82, -314, 1820, -5250, -140, -561, 76, 171
1814, 946, -83, -316, 1820, -5180, -210, -555, 75, 177
1815, 939, -86, -326, 2520, -7000, -210, -559, 72, 175
1816, 943, -84, -320, 3010, -8540, -140, -567, 78, 168
1817, 947, -82, -316, 3080, -8680, -140, -556, 76, 172
1818, 948, -81, -313, 2730, -7770, -140, -565, 78, 175
1819, 945, -82, -321, 2310, -6790, -140, -558, 78, 177
1820, 947, -82, -316, 1750, -5110, -140, -555, 73, 180
1821, 941, -84, -326, 1680, -5180, -140, -556, 72, 169
1822, 945, -83, -322, 1610, -4690, -140, -559, 75, 181
1823, 942, -85, -326, 1610, -4760, -140, -559, 75, 175
1824, 943, -84, -326, 1540, -4620, -140, -559, 66, 186
1825, 940, -85, -329, 1750, -5040, -140, -561, 66, 186
1826, 943, -83, -323, 1610, -4830, -70, -553, 79, 180
1827, 942, -84, -325, 1470, -4200, -140, -571, 76, 181
1828, 944, -82, -323, 840, -2660, -140, -562, 67, 175
1829, 944, -82, -324, 420, -1680, -140, -555, 82, 175
1830, 942, -84, -328, 140, -560, -140, -556, 67, 171
1831, 943, -84, -325, -70, -140, -210, -555, 82, 178
1832, 943, -84, -327, -560, 980, -210, -562, 70, 183
1833, 941, -83, -328, -770, 1540, -210, -561, 85, 186
1834, 941, -84, -327, -840, 1820, -210, -561, 78, 183
1835, 939, -85, -331, -770, 1750, -210, -567, 84, 171
1836, 947, -82, -320, -840, 1960, -210, -562, 78, 181
1837, 932, -89, -343, 210, -840, -140, -561, 79, 181
1838, 946, -83, -323, 280, -700, -140, -559, 72, 180
1839, 938, -85, -332, 140, -490, -140, -567, 84, 177
1840, 945, -83, -323, 140, -630, -210, -555, 70, 174
1841, 940, -84, -328, -630, 1330, -210, -559, 79, 175
1842, 941, -84, -326, -630, 1400, -210, -561, 73, 175
1843, 939, -85, -329, -630, 1330, -210, -552, 75, 180
1844, 940, -86, -330, -350, 840, -210, -562, 66, 174
1845, 944, -84, -325, -560, 1400, -210, -558, 82, 171
1846, 945, -83, -323, -910, 2380, -210, -561, 81, 175
1847, 944, -83, -323, -1470, 3710, -210, -562, 78, 169
1848, 943, -83, -324, -1820, 4340, -280, -555, 70, 175
1849, 941, -84, -325, -1890, 4690, -210, -553, 79, 177
1850, 940, -85, -326, -1750, 4480, -280, -558, 79, 166
1851, 937, -88, -334, -1400, 3360, -210, -565, 69, 174
1852, 938, -87, -332, -700, 1610, -210, -553, 70, 172
1853, 937, -85, -332, -70, -140, -210, -555, 87, 177
1854, 946, -82, -320, 2030, -5950, -210, -558, 85, 175
1855, 946, -81, -318, 1400, -3780, -210, -562, 84, 175
1856, 948, -80, -315, 700, -2100, -280, -561, 78, 171
1857, 948, -81, -316, -350, 560, -210, -562, 72, 178
1858, 940, -86, -330, -700, 1540, -280, -568, 66, 180
1859, 938, -86, -331, -350, 840, -280, -558, 84, 177
1860, 940, -86, -331, 210, -630, -280, -555, 70, 177
1861, 941, -85, -329, 280, -1050, -210, -559, 81, 174
1862, 938, -85, -331, 770, -2170, -210, -553, 70, 184
1863, 942, -82, -324, 630, -2030, -210, -561, 73, 180
1864, 947, -81, -318, 140, -980, -140, -558, 75, 174
1865, 947, -82, -318, -700, 1400, -210, -553, 81, 171
1866, 945, -83, -321, -1400, 3570, -140, -564, 70, 177
1867, 941, -85, -328, -1400, 3640, -140, -559, 76, 178
1868, 940, -86, -328, -1190, 3220, -140, -559, 75, 165
1869, 940, -85, -328, -980, 2730, -140, -561, 81, 181
1870, 939, -85, -330, -700, 1890, -140, -562, 73, 169
1871, 942, -83, -324, -210, 210, -210, -562, 79, 169
1872, 944, -83, -322, -490, 840, -140, -559, 78, 175
1873, 936, -86, -331, -210, 490, -210, -562, 69, 171
1874, 939, -85, -328, 210, -630, -280, -564, 69, 174
1875, 933, -87, -336, 700, -2030, -280, -568, 82, 178
1876, 932, -87, -339, 2660, -6930, -560, -564, 73, 178
1877, 929, -88, -345, 3710, -9940, -560, -559, 84, 171
1878, 930, -87, -345, 5110, -13930, -490, -555, 82, 171
1879, 925, -90, -352, 6580, -17850, -490, -559, 70, 172
1880, 925, -83, -331, 8750, -23520, -1470, -556, 82, 183
1881, 910, -81, -337, 7910, -21350, -4480, -558, 79, 180
1882, 925, -82, -338, 7560, -20720, -7070, -559, 81, 184
