Time [mS], AccX [mg],AccY [mg],AccZ [mg],GyroX [mdps],GyroY [mdps],GyroZ [mdps],MagX [mgauss],MagY [mgauss],MagZ [mgauss]
31868, -68, 1000, 192, 350, 630, 18060, -337, 300, -154
31869, -47, 987, 190, -420, 700, 12110, -343, 307, -145
31870, -54, 990, 190, -420, -910, 8820, -339, 298, -159
31871, -48, 985, 192, -420, -770, 5180, -349, 300, -148
31872, -50, 986, 191, -490, -1120, 2660, -343, 294, -157
31873, -44, 980, 193, -350, -1890, 210, -345, 301, -151
31874, -39, 979, 194, -70, -1890, -280, -345, 298, -151
31875, -44, 983, 197, -420, -2730, -2310, -343, 300, -163
31876, -42, 984, 198, -280, -1330, -3360, -340, 300, -156
31877, -40, 983, 197, -420, -560, -3990, -349, 301, -156
31878, -38, 980, 197, -560, 70, -4130, -342, 300, -154
31879, -38, 977, 196, -350, 1680, -3710, -345, 303, -159
31880, -43, 978, 196, -280, 1260, -4060, -340, 300, -147
31881, -43, 978, 198, -140, 1050, -4690, -346, 297, -160
31882, -48, 980, 199, -210, 630, -4830, -340, 304, -159
31883, -43, 979, 200, -490, 1190, -5250, -343, 303, -150
31884, -40, 981, 200, -770, 2030, -4830, -346, 298, -159
31885, -36, 977, 198, -770, 2310, -4970, -337, 307, -154
31886, -33, 972, 199, -490, 2590, -3850, -334, 306, -154
31887, -34, 973, 199, -210, 3500, -2380, -342, 310, -160
31888, -42, 974, 197, -280, 3780, -1540, -345, 297, -159
31889, -43, 976, 199, -140, 3360, -1190, -345, 300, -160
31890, -44, 979, 200, -140, 3920, -840, -345, 295, -163
31891, -45, 981, 198, -210, 4690, -770, -348, 301, -159
31892, -46, 981, 197, -420, 4480, -700, -340, 292, -159
31893, -47, 978, 190, -490, 1680, -1260, -345, 295, -148
31894, -48, 980, 194, -420, 560, -2030, -334, 291, -159
31895, -56, 984, 197, -560, 210, -3710, -345, 291, -154
31896, -60, 988, 198, -700, 1050, -6580, -339, 295, -157
31897, -63, 988, 196, -630, 2170, -9870, -345, 301, -159
31898, -56, 981, 190, 490, 1400, -9940, -337, 297, -160
31899, -56, 981, 190, 840, 1610, -9590, -345, 303, -144
31900, -49, 973, 187, 1190, 1680, -8960, -340, 295, -154
31901, -46, 970, 187, 1260, 1330, -5880, -337, 306, -156
31902, -55, 974, 182, 1400, 0, -1750, -340, 301, -168
31903, -59, 979, 188, 1470, 840, -1050, -331, 300, -157
31904, -61, 976, 182, 1470, 350, -280, -333, 306, -151
31905, -44, 957, 178, 1820, -1260, 2380, -343, 292, -156
31906, -47, 961, 180, 3220, -3990, 8050, -342, 297, -160
31907, -49, 982, 200, 2380, -3710, 9310, -340, 301, -159
31908, -59, 990, 197, 1260, -2310, 7980, -339, 294, -157
31909, -68, 995, 198, 420, -2310, 5810, -336, 298, -150
31910, -54, 989, 209, -280, -1540, 1890, -346, 288, -148
31911, -73, 988, 191, -1820, -700, 1120, -348, 298, -162
31912, -116, 977, 159, -2450, 7560, -1190, -349, 298, -168
31913, -52, 973, 217, -630, -1400, -2590, -346, 295, -153
31914, -117, 997, 195, -1330, -6720, -6300, -352, 301, -159
31915, -9, 968, 242, -2170, -7210, -10150, -337, 300, -157
31916, -76, 978, 192, -490, -490, -3710, -340, 297, -165
31917, -64, 980, 198, -210, -350, -2240, -340, 291, -157
31918, -48, 977, 203, -70, 350, -1750, -348, 292, -156
31919, -65, 977, 196, 210, 1190, -1470, -340, 300, -160
31920, -60, 972, 197, 210, 1610, -1260, -333, 295, -160
31921, -69, 980, 195, 280, 1260, -1050, -330, 300, -153
31922, -79, 985, 189, 140, 560, -980, -343, 292, -162
31923, -71, 983, 190, 140, 70, -980, -336, 301, -153
31924, -73, 982, 187, 0, -210, -910, -345, 297, -160
31925, -61, 980, 189, 0, -280, -840, -343, 291, -157
31926, -53, 977, 187, 70, 280, -770, -340, 301, -159
31927, -57, 976, 187, 140, 420, -770, -340, 297, -159
31928, -57, 977, 188, 140, 700, -840, -339, 289, -156
31929, -59, 979, 185, 210, 700, -840, -337, 292, -172
31930, -55, 979, 186, 210, 420, -1050, -345, 303, -159
31931, -50, 976, 188, 210, 280, -1260, -337, 291, -156
31932, -48, 977, 189, 280, 140, -1400, -337, 298, -160
31933, 14, 1021, 282, -1190, 4270, -1540, -333, 292, -154
31934, -216, 934, 7, -6790, 7630, -8820, -336, 301, -162
31935, -79, 970, 162, -280, 3150, -2170, -339, 294, -157
31936, -5, 975, 229, 910, -3080, -2800, -343, 298, -159
31937, -43, 973, 199, 630, 210, -2520, -331, 292, -159
31938, -40, 968, 200, 630, 350, -2800, -343, 298, -168
31939, -35, 971, 202, 630, 420, -3010, -339, 297, -150
31940, -34, 975, 202, 770, 980, -3640, -334, 292, -157
31941, -37, 972, 203, 770, 1120, -3990, -333, 295, -151
31942, -34, 969, 206, 840, 1190, -4340, -331, 294, -166
31943, -36, 972, 203, 910, 1330, -4620, -340, 291, -156
31944, -35, 972, 203, 1050, 1400, -5390, -333, 295, -163
31945, -40, 970, 203, 1190, 1610, -5740, -328, 292, -157
31946, -45, 973, 200, 1190, 1820, -6020, -330, 309, -153
31947, -48, 975, 198, 1400, 1960, -6230, -334, 295, -160
31948, -58, 974, 197, 1330, 2100, -6370, -340, 292, -157
31949, -70, 977, 192, 1330, 1890, -6720, -339, 292, -159
31950, -72, 979, 188, 1330, 1610, -6860, -336, 295, -153
31951, -77, 980, 185, 1190, 1470, -6930, -327, 297, -159
31952, -81, 979, 184, 1260, 1470, -7000, -324, 294, -163
31953, -88, 981, 180, 1260, 1540, -6930, -333, 289, -148
31954, -98, 983, 173, 1190, 1470, -6650, -334, 294, -160
31955, -101, 982, 173, 1190, 1330, -6440, -339, 297, -160
31956, -103, 983, 170, 1050, 1190, -6370, -345, 294, -154
31957, -101, 984, 171, 1050, 980, -6230, -330, 297, -151
31958, -103, 977, 173, 1050, 980, -5950, -333, 297, -156
31959, -103, 979, 174, 1050, 910, -5740, -334, 286, -162
31960, -101, 980, 176, 1050, 910, -5460, -345, 295, -162
31961, -110, 984, 177, 1120, 1050, -5250, -336, 294, -159
31962, -113, 983, 177, 980, 1050, -5040, -342, 289, -165
31963, -121, 983, 179, 840, 910, -4550, -334, 291, -150
31964, -124, 982, 178, 770, 700, -4270, -330, 289, -160
31965, -119, 978, 181, 700, 490, -3920, -334, 294, -156
31966, -122, 979, 180, 630, 350, -3640, -325, 291, -169
31967, -135, 990, 171, 490, 140, -3360, -334, 294, -159
31968, -139, 999, 163, 70, -1120, -2870, -330, 282, -156
31969, -117, 986, 170, -70, -1820, -2660, -330, 294, -163
31970, -118, 979, 171, -210, -1960, -2310, -333, 288, -154
31971, -107, 973, 170, -70, -1890, -2030, -322, 292, -157
31972, -96, 974, 165, 210, -490, -1540, -330, 292, -156
31973, -100, 976, 165, 490, 490, -1330, -336, 295, -156
31974, -98, 977, 170, 420, 910, -1050, -336, 288, -160
31975, -112, 980, 172, 560, 1050, -770, -337, 298, -156
31976, -116, 982, 177, 490, 840, -700, -330, 291, -162
31977, -136, 984, 186, 420, 140, -280, -322, 288, -154
31978, -145, 983, 191, 350, -280, 0, -334, 289, -162
31979, -141, 981, 200, 280, -910, 350, -336, 288, -154
31980, -145, 983, 208, 140, -1400, 840, -342, 279, -151
31981, -142, 982, 217, 0, -1820, 1260, -334, 289, -156
31982, -136, 973, 238, -280, -2520, 1960, -333, 280, -160
31983, -122, 968, 250, -420, -2870, 2240, -325, 291, -148
31984, -107, 965, 257, -630, -3220, 2450, -330, 285, -154
31985, -93, 965, 264, -840, -3430, 2450, -333, 288, -160
31986, -82, 968, 269, -840, -2940, 2380, -342, 288, -162
31987, -83, 969, 268, -770, -2240, 2310, -328, 286, -162
31988, -84, 967, 268, -630, -1260, 2450, -339, 285, -153
31989, -96, 966, 265, -490, -70, 2660, -334, 291, -159
31990, -103, 967, 262, -350, 980, 3080, -330, 291, -165
31991, -123, 976, 250, -420, 2590, 3990, -328, 291, -160
31992, -133, 976, 246, -560, 3150, 4550, -328, 292, -153
31993, -131, 975, 245, -700, 3150, 5040, -334, 289, -160
31994, -144, 978, 239, -1050, 2940, 5460, -336, 285, -154
31995, -143, 979, 238, -1190, 2520, 6090, -333, 291, -163
31996, -167, 985, 233, -1400, 1610, 7280, -336, 285, -156
31997, -187, 985, 229, -1540, 980, 8120, -330, 301, -159
31998, -187, 981, 228, -1610, 70, 9030, -342, 283, -162
31999, -194, 975, 227, -1890, -980, 9940, -337, 292, -157
32000, -168, 966, 226, -2450, -3080, 11690, -331, 292, -156
32001, -138, 967, 230, -2800, -3360, 12460, -339, 292, -147
32002, -122, 975, 232, -2870, -2940, 13090, -334, 289, -160
32003, -98, 985, 243, -2940, -2170, 13650, -336, 292, -163
32004, -87, 986, 247, -2940, -1050, 14070, -337, 294, -151
32005, -74, 966, 252, -2800, 630, 14770, -340, 298, -157
32006, -69, 957, 249, -2590, 1190, 14910, -337, 297, -157
32007, -90, 985, 243, -2590, 1260, 15190, -339, 286, -154
32008, -69, 979, 248, -2520, 1960, 15330, -334, 294, -162
32009, -112, 982, 229, -2870, 2030, 15680, -342, 297, -160
32010, -116, 994, 220, -3360, 2100, 16730, -343, 306, -163
32011, -97, 964, 230, -3570, 2100, 17290, -345, 303, -156
32012, -134, 952, 217, -3850, 1470, 17920, -336, 297, -154
32013, -116, 952, 222, -3920, 700, 18480, -345, 301, -159
32014, -122, 986, 221, -3920, -1260, 19810, -337, 294, -157
32015, -144, 987, 218, -4060, -2310, 20440, -348, 307, -150
32016, -109, 973, 235, -4200, -3570, 21140, -339, 301, -156
32017, -109, 975, 230, -4480, -4830, 21700, -351, 303, -159
32018, -66, 964, 233, -4620, -5530, 22260, -346, 306, -163
32019, -28, 938, 235, -4690, -5250, 22820, -345, 303, -159
32020, -24, 961, 233, -4620, -4410, 22960, -351, 307, -168
32021, 10, 980, 246, -4550, -3080, 23100, -360, 312, -165
32022, -1, 991, 243, -4550, -1890, 23310, -354, 309, -162
32023, 5, 985, 252, -4480, -910, 23660, -352, 312, -159
32024, -16, 958, 252, -4340, -840, 23730, -361, 301, -153
32025, -29, 944, 248, -4270, -1330, 23660, -352, 316, -151
32026, -12, 938, 253, -4270, -2170, 23450, -363, 313, -163
32027, -1, 937, 249, -4340, -3290, 23310, -367, 306, -156
32028, 44, 973, 237, -4690, -4480, 22890, -363, 316, -156
32029, 61, 989, 232, -4830, -4200, 22540, -361, 316, -154
32030, 66, 991, 223, -5040, -3640, 22260, -369, 316, -157
32031, 73, 981, 224, -5110, -2730, 21840, -360, 315, -153
32032, 91, 976, 219, -4970, -2030, 21490, -360, 319, -156
32033, 82, 925, 243, -3850, -980, 20510, -372, 313, -151
32034, 59, 914, 240, -3290, 140, 20300, -363, 318, -159
32035, 68, 924, 233, -2660, 840, 20160, -366, 312, -156
32036, 43, 949, 218, -2310, 1470, 20090, -370, 322, -150
32037, 50, 975, 213, -3150, 350, 19950, -370, 312, -159
32038, 31, 1027, 203, -3920, -630, 19950, -381, 321, -160
32039, 12, 1033, 192, -4620, -1050, 20160, -381, 319, -157
32040, 21, 1012, 196, -5040, -1120, 20580, -373, 331, -160
32041, -2, 982, 193, -5180, -630, 21140, -376, 321, -159
32042, -5, 913, 197, -4340, 350, 22610, -373, 330, -150
32043, 9, 889, 208, -3570, 490, 23310, -373, 322, -171
32044, 2, 892, 216, -2870, -210, 23800, -391, 321, -162
32045, 24, 916, 231, -2520, -1960, 23870, -378, 330, -150
32046, 36, 964, 230, -2660, -4130, 23730, -379, 339, -160
32047, 108, 1037, 241, -4130, -7770, 22890, -382, 328, -154
32048, 144, 1034, 246, -5110, -8680, 22330, -385, 331, -165
32049, 162, 1005, 249, -5880, -8820, 21700, -382, 330, -157
32050, 179, 964, 251, -6300, -7910, 21070, -393, 324, -160
32051, 184, 926, 252, -5250, -4620, 20020, -399, 330, -160
32052, 177, 879, 263, -4200, -2800, 19460, -390, 331, -160
32053, 178, 873, 267, -3080, -1540, 18970, -382, 333, -153
32054, 169, 902, 263, -2170, -910, 18270, -397, 340, -163
32055, 170, 960, 255, -1610, -1260, 17570, -396, 337, -151
32056, 135, 1035, 247, -2730, -4200, 15960, -390, 336, -156
32057, 115, 1028, 240, -3990, -7000, 15120, -391, 330, -159
32058, 114, 998, 238, -5110, -10220, 14280, -394, 333, -166
32059, 107, 955, 247, -5810, -13860, 13510, -402, 336, -162
32060, 109, 902, 259, -6020, -17920, 12390, -405, 345, -160
32061, 110, 889, 262, -6020, -27440, 9730, -403, 340, -165
32062, 101, 949, 248, -6440, -33040, 8470, -403, 336, -169
32063, 80, 1003, 233, -7490, -39410, 7280, -400, 339, -162
32064, 71, 1026, 226, -8820, -45780, 6230, -402, 340, -183
32065, 61, 1018, 219, -11620, -58380, 3990, -400, 345, -184
32066, 5, 983, 210, -13160, -67550, 2730, -411, 333, -180
32067, -6, 958, 214, -14630, -77210, 1610, -403, 340, -186
32068, -41, 944, 209, -16100, -87570, 420, -409, 342, -190
32069, -36, 936, 207, -17500, -99260, -1260, -403, 342, -195
32070, 36, 987, 208, -20090, -120750, -4690, -409, 333, -205
32071, 119, 988, 199, -21280, -128170, -6090, -403, 337, -196
32072, 229, 971, 200, -21840, -129500, -6720, -406, 340, -201
32073, 257, 980, 189, -21840, -126700, -6790, -405, 340, -211
32074, 341, 965, 197, -21280, -119910, -6580, -418, 333, -225
32075, 386, 912, 218, -17010, -90370, -4760, -421, 343, -229
32076, 376, 900, 218, -14350, -75460, -3710, -421, 337, -229
32077, 418, 885, 231, -11550, -60830, -2590, -424, 339, -231
32078, 367, 887, 232, -8890, -47390, -1400, -414, 342, -226
32079, 364, 944, 231, -4060, -27370, 280, -417, 336, -237
32080, 298, 963, 224, -2240, -19040, 840, -418, 325, -237
32081, 253, 954, 210, -700, -11550, 1540, -420, 343, -238
32082, 270, 930, 208, 420, -4410, 2030, -421, 331, -234
32083, 233, 936, 198, 770, 280, 2800, -429, 331, -244
32084, 179, 981, 201, 980, 5390, 3920, -424, 334, -235
32085, 168, 980, 205, 1050, 7000, 4270, -426, 346, -240
32086, 154, 977, 203, 1190, 7350, 4410, -423, 346, -244
32087, 168, 978, 211, 1610, 7910, 4550, -430, 336, -234
32088, 182, 977, 206, 1750, 7140, 4760, -429, 336, -229
32089, 192, 947, 193, 2030, 6440, 5110, -430, 348, -238
32090, 187, 936, 188, 2100, 7210, 5110, -421, 339, -231
32091, 197, 943, 190, 2100, 7770, 5180, -424, 339, -240
32092, 187, 964, 193, 1960, 8680, 5320, -423, 337, -231
32093, 167, 964, 201, 1540, 8190, 5600, -429, 342, -232
32094, 176, 963, 206, 1540, 7280, 5880, -420, 334, -237
32095, 157, 965, 208, 1680, 7070, 6090, -421, 334, -235
32096, 168, 953, 213, 1890, 6930, 6300, -414, 333, -237
32097, 155, 949, 208, 2170, 7070, 6580, -420, 328, -238
32098, 164, 957, 202, 2240, 6650, 7070, -424, 342, -237
32099, 179, 969, 206, 2100, 6020, 7280, -424, 342, -235
32100, 166, 981, 204, 1820, 5250, 7420, -421, 345, -231
32101, 172, 983, 206, 1330, 4410, 7630, -426, 348, -229
32102, 159, 978, 204, 910, 3850, 7910, -424, 342, -235
32103, 179, 951, 203, 700, 3780, 8470, -424, 348, -232
32104, 201, 942, 208, 1120, 4270, 8680, -429, 345, -229
32105, 197, 937, 216, 1540, 4690, 8890, -427, 345, -222
32106, 200, 933, 225, 2030, 5180, 9100, -430, 345, -226
32107, 189, 955, 215, 2450, 5390, 9590, -426, 339, -223
32108, 182, 971, 205, 2310, 5180, 9800, -427, 346, -228
32109, 184, 975, 205, 1960, 5040, 9940, -427, 351, -225
32110, 180, 963, 204, 1470, 4130, 10150, -427, 348, -231
32111, 180, 952, 210, 1050, 3500, 10220, -432, 351, -222
32112, 183, 966, 212, 910, 1890, 10710, -435, 342, -223
32113, 189, 975, 212, 980, 1470, 10850, -429, 343, -232
32114, 189, 980, 211, 1120, 1470, 11130, -427, 343, -225
32115, 196, 977, 207, 1120, 1050, 11340, -427, 351, -226
32116, 192, 970, 199, 840, 840, 11690, -424, 343, -225
32117, 183, 941, 193, 490, 140, 12320, -429, 349, -216
32118, 187, 929, 196, 350, -210, 12530, -435, 349, -228
32119, 183, 932, 195, 420, -350, 12810, -430, 349, -223
32120, 194, 940, 197, 630, -700, 13020, -429, 339, -228
32121, 204, 957, 201, 1050, -980, 13790, -436, 339, -225
32122, 203, 962, 201, 1120, -980, 14210, -438, 345, -237
32123, 207, 961, 197, 1120, -770, 14700, -429, 348, -219
32124, 205, 959, 191, 1050, -280, 15120, -442, 345, -226
32125, 210, 953, 192, 910, 210, 15610, -432, 361, -211
32126, 211, 945, 197, 840, 1190, 16660, -441, 345, -229
32127, 209, 946, 201, 980, 1750, 17080, -448, 345, -216
32128, 213, 946, 206, 1190, 2310, 17710, -438, 354, -225
32129, 213, 945, 206, 1540, 2870, 18270, -444, 345, -225
32130, 216, 946, 207, 1820, 3640, 19390, -441, 351, -219
32131, 225, 954, 197, 2240, 5460, 20090, -444, 354, -222
32132, 227, 958, 194, 2310, 6160, 20790, -438, 351, -217
32133, 225, 960, 194, 2170, 6720, 21560, -444, 352, -207
32134, 214, 956, 194, 2030, 6930, 22260, -447, 363, -213
32135, 192, 947, 201, 1680, 6300, 23520, -445, 354, -205
32136, 180, 939, 202, 1400, 4900, 24010, -450, 354, -223
32137, 172, 932, 204, 1190, 2590, 24570, -439, 346, -217
32138, 165, 930, 204, 840, -350, 24990, -454, 363, -210
32139, 163, 934, 207, 490, -3780, 25480, -457, 346, -214
32140, 184, 938, 206, -280, -9450, 26460, -459, 352, -219
32141, 203, 940, 205, -490, -10780, 27090, -462, 355, -204
32142, 223, 939, 206, -700, -11410, 27930, -465, 361, -213
32143, 237, 935, 206, -700, -11130, 28770, -456, 360, -214
32144, 247, 928, 206, -350, -8750, 31010, -465, 358, -216
32145, 245, 915, 207, -70, -7280, 32130, -463, 355, -214
32146, 327, 831, 202, 630, -4830, 33530, -454, 361, -210
32147, 152, 734, 199, 2870, 13370, 35980, -466, 361, -207
32148, -54, 831, 191, 2800, -3500, 35840, -471, 361, -214
32149, 282, 1016, 270, 1400, -16940, 37940, -480, 361, -214
32150, 551, 963, 240, 490, -18620, 34930, -474, 369, -207
32151, 1320, 895, 227, 1680, -3500, 30170, -475, 372, -213
32152, 1606, 842, 151, 5530, 37240, 28280, -481, 370, -213
32153, 1402, 677, 163, 8680, 66500, 26670, -480, 360, -216
32154, 525, 599, 262, 7350, 39900, 13300, -481, 366, -205
32155, 414, 798, 259, 3710, 6510, 490, -477, 369, -204
32156, 635, 1013, 234, 0, -21910, -10990, -480, 370, -204
32157, 798, 1084, 215, -2590, -31290, -17780, -483, 364, -213
32158, 793, 1008, 211, -6650, -28280, -20020, -475, 366, -205
32159, 404, 904, 198, -7420, -22540, -19320, -481, 358, -211
32160, 314, 863, 211, -6020, -10500, -19110, -469, 370, -210
32161, 299, 794, 225, -3150, 2660, -18830, -471, 354, -213
32162, 396, 728, 252, 210, 14700, -18480, -480, 369, -211
32163, 512, 832, 243, 4760, 24360, -16380, -477, 361, -207
32164, 408, 913, 231, 5390, 21280, -16100, -471, 366, -205
32165, 256, 938, 233, 4550, 14280, -17640, -472, 369, -205
32166, 167, 959, 221, 2310, 3010, -20930, -466, 367, -214
32167, 247, 969, 212, -910, -9870, -25060, -471, 367, -214
32168, 583, 940, 209, -6440, -26740, -30590, -465, 360, -211
32169, 573, 903, 223, -7490, -28070, -31850, -463, 357, -211
32170, 484, 876, 251, -7490, -26810, -32760, -469, 354, -219
32171, 359, 883, 258, -6510, -23660, -33460, -471, 364, -214
32172, 307, 875, 265, -3710, -16030, -33670, -462, 354, -211
32173, 312, 861, 248, -2940, -13090, -33180, -459, 351, -217
32174, 332, 884, 238, -2660, -10640, -32620, -457, 357, -219
32175, 308, 922, 236, -2730, -7840, -32200, -462, 357, -214
32176, 283, 946, 240, -3080, -5250, -31570, -451, 351, -228
32177, 196, 939, 264, -3640, -3920, -30030, -457, 358, -222
32178, 206, 930, 269, -3290, -2590, -28840, -453, 360, -235
32179, 206, 916, 269, -2310, 700, -27440, -451, 358, -217
32180, 200, 900, 266, -1260, 3710, -26040, -445, 348, -226
32181, 198, 894, 265, -490, 5040, -24850, -438, 346, -217
32182, 133, 957, 259, -700, 1750, -24150, -451, 357, -222
32183, 94, 992, 254, -2100, -4550, -24430, -445, 349, -223
32184, 95, 998, 257, -3990, -13090, -24640, -454, 354, -238
32185, 80, 994, 251, -6090, -22960, -24920, -450, 342, -222
32186, 93, 972, 255, -9730, -39970, -25130, -441, 346, -240
32187, 95, 934, 264, -10640, -44590, -25060, -442, 349, -225
32188, 107, 920, 261, -10990, -47740, -24640, -441, 340, -234
32189, 168, 906, 269, -10920, -48370, -24080, -448, 348, -235
32190, 182, 927, 270, -10430, -46130, -23240, -433, 351, -237
32191, 212, 948, 275, -9240, -40740, -21490, -444, 343, -232
32192, 248, 945, 275, -8890, -37940, -20860, -444, 342, -243
32193, 250, 950, 268, -8540, -35280, -20090, -435, 342, -243
32194, 257, 945, 271, -8190, -32480, -19250, -438, 336, -249
32195, 214, 936, 272, -7910, -29750, -18480, -438, 345, -253
32196, 167, 919, 281, -7350, -25690, -17290, -435, 345, -249
32197, 181, 927, 285, -6930, -23310, -16590, -435, 337, -246
32198, 181, 944, 287, -6300, -20580, -15610, -439, 327, -249
32199, 182, 960, 292, -5740, -17570, -14490, -433, 331, -247
32200, 165, 964, 292, -4970, -14350, -12390, -438, 343, -255
32201, 144, 950, 286, -4830, -14280, -11480, -432, 345, -253
32202, 131, 944, 277, -4970, -15120, -10920, -433, 346, -255
32203, 113, 935, 276, -5110, -16450, -10570, -442, 340, -268
32204, 108, 933, 281, -5320, -18480, -10220, -442, 343, -262
32205, 146, 940, 287, -5810, -22190, -9730, -439, 334, -261
32206, 160, 950, 290, -5670, -23030, -9310, -433, 340, -264
32207, 168, 956, 292, -5390, -22820, -8820, -435, 336, -274
32208, 170, 947, 298, -5180, -22190, -8330, -438, 336, -274
32209, 171, 945, 297, -5040, -21140, -7770, -441, 340, -264
32210, 177, 957, 285, -4760, -18970, -6580, -433, 334, -265
32211, 182, 946, 287, -4620, -17780, -6090, -441, 337, -261
32212, 178, 931, 290, -4410, -16380, -5670, -438, 336, -265
32213, 172, 919, 294, -4270, -15610, -5250, -435, 339, -270
32214, 161, 926, 296, -3920, -16310, -4480, -444, 333, -273
32215, 152, 936, 301, -3710, -16520, -4200, -435, 334, -285
32216, 169, 948, 303, -3430, -16800, -4060, -433, 333, -274
32217, 183, 952, 292, -3290, -16520, -4060, -441, 339, -270
32218, 213, 944, 289, -3360, -16520, -3920, -430, 328, -273
32219, 210, 950, 292, -3430, -15750, -3430, -444, 337, -282
32220, 185, 939, 288, -3360, -14700, -3010, -439, 336, -279
32221, 160, 935, 295, -3150, -13300, -2450, -436, 339, -276
32222, 156, 941, 300, -2940, -12390, -2030, -447, 327, -271
32223, 157, 950, 297, -2730, -11620, -1540, -442, 337, -277
32224, 166, 942, 295, -2310, -11480, -840, -445, 325, -289
32225, 175, 929, 295, -2100, -11760, -560, -439, 343, -277
32226, 176, 944, 286, -1890, -11760, -210, -435, 336, -282
32227, 187, 952, 287, -1750, -11620, 210, -445, 334, -279
32228, 190, 933, 291, -1540, -9940, 840, -445, 336, -276
32229, 203, 930, 288, -1330, -8470, 1260, -438, 337, -271
32230, 218, 924, 284, -980, -6300, 1680, -444, 328, -280
32231, 212, 922, 281, -420, -3920, 2030, -442, 336, -285
32232, 211, 923, 288, -140, -2730, 2310, -438, 339, -297
32233, 211, 951, 282, 210, -2170, 2520, -439, 333, -279
32234, 216, 949, 282, 420, -1680, 2450, -445, 337, -297
32235, 217, 931, 281, 490, -1540, 2520, -442, 340, -279
32236, 233, 910, 278, 350, -1470, 2380, -442, 334, -285
32237, 222, 907, 279, 280, -1330, 2310, -444, 343, -277
32238, 252, 950, 281, 420, 210, 1960, -444, 342, -289
32239, 266, 954, 282, 560, 1400, 1890, -439, 340, -279
32240, 251, 936, 280, 770, 2940, 1890, -444, 345, -283
32241, 249, 926, 283, 910, 3780, 1680, -442, 339, -292
32242, 253, 932, 267, 1050, 4900, 1120, -444, 336, -286
32243, 249, 913, 274, 980, 5390, 910, -429, 337, -273
32244, 252, 899, 269, 1120, 5460, 490, -444, 348, -280
32245, 253, 933, 269, 1260, 5600, 140, -442, 343, -276
32246, 252, 956, 264, 1190, 5880, -140, -447, 345, -280
32247, 233, 937, 275, 770, 4410, -1050, -439, 345, -276
32248, 228, 954, 268, 280, 2870, -1610, -448, 337, -291
32249, 225, 969, 271, -210, 1680, -2030, -438, 336, -280
32250, 221, 953, 270, -630, 770, -2450, -450, 339, -288
32251, 210, 934, 270, -910, -280, -2870, -445, 343, -292
32252, 197, 949, 270, -1190, -2520, -3010, -451, 348, -279
32253, 202, 972, 266, -1260, -3150, -3010, -439, 343, -282
32254, 188, 956, 265, -1330, -3430, -2940, -441, 352, -285
32255, 177, 934, 272, -1610, -3920, -2870, -448, 346, -276
32256, 200, 949, 269, -2380, -5810, -3150, -445, 345, -280
32257, 226, 952, 271, -2310, -5180, -3080, -442, 342, -274
32258, 238, 948, 273, -1890, -3850, -2940, -438, 343, -276
32259, 242, 934, 274, -1470, -2240, -2800, -448, 342, -292
32260, 227, 937, 275, -1190, -1400, -2660, -444, 349, -279
32261, 193, 953, 276, -1120, -1330, -2590, -444, 342, -273
32262, 172, 954, 276, -1260, -1680, -2590, -441, 339, -276
32263, 170, 955, 267, -1400, -2520, -2520, -436, 343, -285
32264, 178, 939, 273, -1680, -2660, -2450, -442, 346, -280
32265, 182, 940, 273, -1960, -3360, -2240, -447, 342, -289
32266, 203, 933, 272, -2030, -3570, -2170, -442, 349, -273
32267, 209, 920, 278, -1960, -3360, -2100, -445, 340, -285
32268, 216, 924, 277, -1610, -3010, -2170, -450, 345, -291
32269, 224, 931, 282, -1470, -2520, -2100, -441, 340, -288
32270, 213, 928, 279, -1050, -1680, -2240, -433, 340, -282
32271, 192, 931, 283, -980, -1680, -2310, -445, 340, -280
32272, 189, 932, 277, -1190, -2380, -2170, -447, 334, -279
32273, 165, 934, 280, -1260, -3010, -2170, -438, 340, -280
32274, 154, 930, 287, -1540, -4550, -2100, -438, 339, -280
32275, 148, 927, 287, -1960, -7420, -2100, -441, 340, -279
32276, 167, 929, 297, -2030, -8260, -2170, -445, 337, -283
32277, 180, 941, 289, -1960, -9030, -2170, -445, 339, -274
32278, 187, 944, 297, -2030, -9380, -2030, -439, 343, -279
32279, 180, 962, 291, -2590, -11340, -2030, -448, 343, -271
32280, 178, 978, 297, -2940, -12460, -2030, -447, 337, -271
32281, 198, 980, 282, -3220, -12670, -2030, -448, 342, -289
32282, 187, 967, 285, -3430, -12460, -1960, -445, 333, -288
32283, 172, 929, 289, -3780, -12810, -1890, -451, 348, -285
32284, 187, 949, 291, -4340, -14280, -2100, -442, 328, -282
32285, 206, 940, 288, -4200, -13860, -2100, -451, 333, -277
32286, 219, 911, 305, -3780, -12530, -2030, -441, 324, -285
32287, 222, 902, 309, -3290, -11550, -2030, -450, 339, -286
32288, 229, 915, 292, -2660, -9730, -2030, -444, 334, -279
32289, 205, 890, 294, -1610, -6930, -2030, -444, 336, -279
32290, 210, 921, 288, -1470, -7210, -2240, -453, 328, -279
32291, 207, 953, 286, -1750, -7280, -2520, -444, 342, -286
32292, 207, 959, 279, -2240, -7980, -2800, -447, 340, -285
32293, 212, 951, 291, -3220, -9450, -3640, -451, 336, -280
32294, 219, 936, 286, -3430, -10220, -4130, -447, 331, -292
32295, 243, 953, 287, -3290, -10010, -4550, -445, 340, -280
32296, 251, 957, 286, -3010, -8610, -4830, -453, 331, -288
32297, 240, 945, 289, -2940, -7560, -5040, -451, 331, -286
32298, 233, 976, 279, -2940, -7070, -5390, -436, 331, -286
32299, 238, 976, 269, -2870, -5670, -5460, -448, 330, -295
32300, 203, 945, 271, -2730, -3780, -5600, -453, 321, -295
32301, 210, 906, 273, -2870, -3780, -5810, -445, 336, -289
32302, 202, 883, 275, -3360, -4340, -6230, -442, 333, -298
32303, 265, 973, 276, -3500, -5320, -7280, -450, 328, -285
32304, 282, 981, 280, -2870, -2730, -7560, -450, 330, -294
32305, 292, 950, 280, -2170, -840, -7910, -445, 334, -286
32306, 283, 930, 290, -1610, 840, -8400, -445, 328, -286
32307, 275, 951, 243, -910, 2940, -9520, -447, 331, -285
32308, 245, 907, 254, -840, 3780, -9940, -444, 322, -294
32309, 207, 900, 249, -1470, 3360, -10500, -441, 328, -294
32310, 194, 931, 247, -2520, 1190, -11060, -432, 333, -289
32311, 196, 986, 254, -3710, -420, -11620, -442, 328, -285
32312, 207, 981, 279, -5110, -630, -12180, -447, 334, -297
32313, 227, 947, 291, -5040, 280, -12320, -433, 328, -298
32314, 237, 942, 289, -4340, 2100, -12320, -436, 328, -291
32315, 241, 918, 293, -3220, 5670, -12110, -432, 334, -289
32316, 239, 857, 291, -1610, 9100, -11760, -441, 322, -294
32317, 196, 836, 274, 980, 15260, -11130, -441, 324, -292
32318, 189, 897, 284, 1680, 17430, -10850, -433, 319, -300
32319, 198, 974, 276, 1820, 18760, -10430, -435, 321, -309
32320, 166, 1013, 276, 1400, 19600, -10010, -432, 324, -297
32321, 123, 999, 296, -770, 17150, -9660, -424, 325, -289
32322, 147, 1009, 292, -1470, 16310, -9450, -432, 330, -295
32323, 185, 953, 296, -1400, 17430, -9030, -430, 319, -297
32324, 209, 873, 297, -560, 19880, -8400, -424, 324, -303
32325, 186, 828, 301, 420, 22470, -7770, -435, 330, -297
32326, 181, 890, 302, 2520, 25550, -7210, -430, 318, -288
32327, 194, 928, 296, 3430, 26670, -7000, -430, 312, -300
32328, 188, 956, 286, 3780, 27720, -6790, -427, 316, -297
32329, 155, 966, 295, 3640, 27790, -6580, -421, 324, -295
32330, 127, 974, 294, 2660, 25060, -6650, -430, 321, -289
32331, 124, 977, 290, 630, 19740, -6790, -421, 316, -292
32332, 126, 978, 298, 280, 18270, -6790, -429, 325, -294
32333, 135, 974, 295, 350, 17150, -6720, -423, 325, -277
32334, 147, 944, 309, 770, 16660, -6650, -426, 324, -279
32335, 150, 948, 290, 1820, 15470, -6510, -415, 322, -283
32336, 107, 856, 320, 2030, 14210, -6580, -424, 324, -300
32337, 98, 809, 300, 2240, 10710, -7000, -427, 316, -280
32338, 117, 824, 296, 2870, 8400, -7420, -423, 319, -292
32339, 140, 890, 275, 3780, 8050, -7700, -427, 312, -283
32340, 46, 944, 269, 2870, 2870, -8190, -408, 322, -277
32341, -22, 1001, 294, 140, -6510, -9030, -423, 315, -291
32342, -40, 1134, 294, -3150, -17290, -10640, -420, 313, -285
32343, 27, 1202, 300, -5810, -25690, -11900, -427, 318, -291
32344, 78, 1079, 320, -7280, -28630, -12740, -424, 325, -294
32345, 121, 930, 301, -7560, -32900, -13510, -418, 327, -307
32346, 158, 902, 299, -6720, -32760, -13650, -420, 316, -291
32347, 100, 856, 286, -5530, -30030, -13650, -420, 321, -295
32348, 104, 888, 295, -4480, -28210, -13720, -420, 321, -298
32349, 45, 931, 320, -4760, -26460, -14140, -424, 321, -301
32350, 66, 900, 296, -5320, -25830, -14210, -426, 327, -298
32351, 147, 897, 288, -5250, -23940, -13720, -429, 324, -303
32352, 177, 967, 296, -4620, -18970, -13020, -420, 328, -316
32353, 194, 968, 320, -3500, -13230, -12110, -430, 324, -315
32354, 141, 970, 336, -1120, -1820, -10780, -423, 322, -313
32355, 148, 991, 311, 0, 3990, -10080, -423, 321, -309
32356, 151, 907, 301, 1190, 10150, -8960, -424, 328, -313
32357, 147, 865, 292, 2240, 15190, -7840, -421, 333, -312
32358, 145, 881, 286, 3080, 19320, -6860, -421, 324, -303
32359, 148, 963, 287, 4060, 26250, -4970, -427, 322, -300
32360, 140, 1003, 303, 4200, 29190, -4270, -415, 324, -303
32361, 157, 1030, 313, 4270, 31850, -3850, -421, 327, -304
32362, 207, 1035, 328, 4830, 35000, -3220, -423, 330, -298
32363, 266, 982, 297, 7630, 46620, -1330, -418, 334, -298
32364, 218, 916, 290, 9380, 52430, -350, -412, 328, -295
32365, 188, 827, 276, 10500, 55720, 420, -424, 316, -292
32366, 145, 823, 263, 11480, 57400, 910, -412, 319, -279
32367, 155, 873, 253, 12040, 58240, 1470, -417, 312, -286
32368, 102, 919, 268, 11270, 54110, 2030, -418, 331, -276
32369, 43, 986, 258, 10010, 48930, 1680, -403, 325, -271
32370, 75, 1043, 271, 8400, 42000, 1330, -409, 330, -270
32371, 79, 1058, 270, 7140, 37520, 1050, -411, 321, -273
32372, 91, 1048, 278, 6230, 31150, 700, -408, 328, -279
32373, 94, 957, 275, 4620, 28140, 630, -405, 322, -262
32374, 70, 920, 277, 3990, 25060, 490, -414, 322, -271
32375, 52, 903, 273, 3360, 21560, 420, -406, 321, -267
32376, 39, 881, 259, 3080, 18970, 140, -400, 318, -264
32377, 51, 866, 283, 3150, 14140, -140, -415, 316, -268
32378, 61, 899, 287, 3080, 12250, -280, -400, 322, -261
32379, 60, 928, 284, 3080, 10850, -280, -409, 325, -258
32380, 77, 954, 295, 2940, 9800, -350, -412, 318, -270
32381, 67, 1002, 289, 2590, 8610, -490, -412, 319, -265
32382, 106, 1064, 304, 1680, 8190, -700, -406, 318, -267
32383, 146, 1051, 294, 1400, 8820, -560, -411, 322, -274
32384, 145, 985, 297, 1540, 11200, -280, -390, 312, -259
32385, 157, 933, 296, 2100, 14420, 140, -411, 316, -261
32386, 145, 886, 287, 4760, 22890, 1050, -409, 313, -262
32387, 151, 846, 285, 6440, 27300, 1680, -397, 324, -264
32388, 140, 888, 277, 8260, 31640, 2450, -406, 312, -270
32389, 135, 924, 268, 9310, 34510, 3290, -412, 319, -252
32390, 98, 948, 263, 9520, 35700, 3920, -405, 313, -261
32391, 34, 1057, 255, 7000, 30170, 4270, -400, 321, -255
32392, 39, 1079, 256, 5040, 26040, 4130, -396, 319, -249
32393, 54, 1054, 280, 3570, 22820, 4130, -400, 319, -253
32394, 89, 1014, 288, 2800, 20860, 4270, -399, 312, -258
32395, 119, 986, 274, 3150, 20790, 4550, -403, 321, -255
32396, 124, 911, 268, 5600, 24290, 5250, -399, 328, -259
32397, 110, 906, 254, 6720, 25340, 5320, -408, 319, -243
32398, 55, 938, 250, 6790, 24430, 5110, -403, 312, -247
32399, 40, 953, 233, 5670, 20160, 4690, -405, 321, -253
32400, 22, 978, 230, 1470, 7560, 3710, -402, 319, -250
32401, 18, 1008, 242, -490, 2380, 3150, -408, 330, -246
32402, 25, 991, 257, -1750, -1330, 2660, -399, 325, -249
32403, 45, 962, 289, -2100, -3640, 2240, -397, 322, -247
32404, 107, 983, 281, -1400, -3500, 1960, -397, 318, -252
32405, 125, 937, 280, 1190, 2030, 2170, -393, 319, -240
32406, 83, 923, 263, 1750, 2240, 1820, -400, 327, -256
32407, 56, 952, 249, 980, -910, 1330, -394, 315, -249
32408, 38, 991, 250, -280, -5040, 630, -400, 327, -253
32409, 64, 1022, 245, -1610, -8050, 0, -396, 316, -259
32410, 76, 927, 268, -2310, -7910, -630, -409, 325, -259
32411, 88, 899, 278, -2100, -6300, -840, -397, 318, -255
32412, 133, 914, 261, -1120, -3920, -630, -408, 319, -262
32413, 167, 929, 271, 490, 1540, -210, -414, 318, -258
32414, 150, 925, 252, 2450, 11200, 560, -400, 321, -258
32415, 58, 897, 245, 1540, 11130, 490, -399, 316, -252
32416, 44, 888, 274, -140, 7980, 70, -399, 325, -262
32417, 125, 990, 271, -630, 6020, -210, -402, 325, -258
32418, 251, 1067, 286, 1050, 11200, 70, -406, 325, -258
32419, 245, 933, 258, 6650, 31850, 1680, -409, 324, -252
32420, 101, 810, 288, 7630, 33320, 1750, -405, 327, -250
32421, 161, 883, 294, 7350, 29890, 1400, -403, 330, -250
32422, 241, 1068, 200, 7910, 30100, 1330, -399, 324, -252
32423, 235, 1045, 178, 8680, 36330, 1820, -396, 331, -238
32424, -92, 738, 235, 5110, 29610, 840, -399, 325, -247
32425, -1, 882, 231, 1890, 17500, -140, -406, 333, -238
32426, 164, 1074, 215, 420, 13720, -210, -396, 333, -243
32427, 206, 1101, 241, 1540, 19740, 420, -399, 336, -235
32428, 114, 997, 318, 3780, 24640, 630, -403, 325, -235
32429, 106, 1035, 292, 3990, 21700, 560, -403, 334, -231
32430, 205, 1106, 244, 4760, 22890, 770, -400, 327, -232
32431, 174, 1011, 224, 5600, 26950, 1190, -393, 333, -234
32432, 36, 841, 243, 5390, 27230, 1190, -399, 325, -232
32433, 14, 863, 216, 2310, 14070, 420, -402, 328, -240
32434, 118, 967, 209, 2240, 13300, 490, -394, 331, -232
32435, 120, 1017, 241, 3150, 17220, 1050, -393, 342, -235
32436, 58, 982, 262, 3780, 19880, 1400, -397, 333, -226
32437, 36, 1019, 281, 3570, 17220, 1470, -396, 325, -219
32438, 132, 1124, 243, 2800, 15470, 1890, -397, 321, -226
32439, 88, 1016, 230, 3080, 17640, 2100, -396, 318, -222
32440, 4, 854, 235, 2870, 17430, 2170, -403, 330, -222
32441, 0, 803, 230, 2310, 13790, 2030, -397, 321, -216
32442, 60, 917, 194, 2170, 11480, 2660, -394, 325, -232
32443, 28, 956, 223, 2450, 12390, 3010, -400, 325, -214
32444, -8, 1042, 247, 1540, 9520, 2940, -388, 318, -223
32445, -7, 1151, 253, -140, 4340, 2660, -393, 322, -229
32446, 38, 1210, 261, -1960, -1050, 2380, -394, 319, -219
32447, 22, 1057, 236, -4410, -3780, 2310, -397, 321, -217
32448, -24, 879, 244, -5460, -6090, 1960, -399, 321, -228
32449, -28, 804, 236, -5880, -9940, 1610, -385, 316, -228
32450, 62, 844, 248, -4900, -10080, 1680, -397, 319, -228
32451, 119, 915, 238, -2450, -4620, 2100, -387, 319, -228
32452, 58, 916, 260, 1820, 6790, 3290, -393, 324, -226
32453, 24, 971, 242, 1260, 3920, 3150, -388, 319, -225
32454, 17, 1044, 223, -490, -910, 2730, -400, 325, -229
32455, 43, 1067, 221, -2450, -4900, 2240, -391, 331, -220
32456, 32, 963, 246, -5110, -9030, 1330, -397, 322, -216
32457, 60, 967, 267, -5460, -9800, 980, -391, 325, -226
32458, 128, 1011, 250, -4690, -7700, 1050, -390, 318, -231
32459, 151, 975, 268, -2870, -1890, 1330, -390, 318, -234
32460, 145, 892, 266, -840, 4130, 1750, -397, 316, -229
32461, 122, 844, 243, 1960, 12110, 2660, -391, 315, -235
32462, 120, 903, 226, 2730, 14840, 3220, -394, 325, -234
32463, 107, 957, 245, 2870, 16310, 3780, -393, 319, -228
32464, 66, 1030, 241, 2660, 16520, 4060, -390, 324, -231
32465, 60, 1093, 249, 2170, 15750, 4410, -397, 316, -232
32466, 75, 1127, 242, 630, 14210, 4620, -394, 318, -228
32467, 62, 1033, 231, -280, 13020, 4690, -399, 324, -234
32468, 42, 917, 247, -1050, 10640, 4410, -403, 325, -231
32469, 81, 880, 235, -1260, 9030, 4270, -396, 321, -226
32470, 118, 834, 239, 700, 12880, 4550, -400, 327, -217
32471, 91, 826, 249, 1890, 15260, 4830, -400, 328, -228
32472, 90, 886, 257, 2730, 14980, 4900, -397, 327, -225
32473, 116, 982, 249, 3290, 15540, 5250, -403, 322, -225
32474, 133, 1040, 260, 3710, 17430, 5740, -400, 328, -226
32475, 24, 964, 242, 2800, 15750, 6020, -406, 328, -225
32476, 14, 946, 233, 1820, 12320, 6020, -396, 333, -217
32477, 39, 950, 222, 840, 10010, 6160, -390, 331, -216
32478, 40, 954, 229, 70, 9100, 6580, -393, 330, -220
32479, 50, 966, 241, -490, 7350, 6860, -396, 336, -222
32480, 64, 1023, 271, -1190, 4060, 7210, -391, 330, -225
32481, 65, 1028, 265, -700, 5180, 7490, -402, 337, -213
32482, 77, 957, 274, 70, 7630, 7980, -391, 333, -220
32483, 53, 895, 256, 630, 7980, 8400, -396, 328, -219
32484, 28, 907, 227, 210, 5250, 9170, -391, 330, -222
32485, 9, 961, 244, -770, 3570, 9380, -399, 334, -223
32486, 7, 1047, 241, -2100, 420, 9590, -402, 325, -216
32487, 11, 1099, 259, -3500, -3290, 9450, -406, 343, -211
32488, 23, 1125, 253, -4900, -6300, 9450, -390, 339, -216
32489, 84, 951, 291, -5880, -6160, 9660, -400, 342, -222
32490, 132, 871, 281, -4690, -3080, 10010, -402, 336, -228
32491, 179, 866, 267, -2380, 2870, 10640, -412, 328, -208
32492, 190, 871, 268, 210, 11130, 11480, -400, 339, -214
32493, 193, 939, 261, 2240, 20440, 13090, -406, 327, -207
32494, 138, 1068, 251, 1820, 19600, 13510, -408, 321, -211
32495, 94, 1063, 243, 280, 17640, 13790, -409, 336, -208
32496, 64, 1015, 233, -1190, 15680, 13860, -402, 330, -217
32497, 83, 954, 250, -2100, 14560, 14000, -397, 333, -205
32498, 158, 858, 245, -1260, 17920, 14910, -405, 337, -214
32499, 156, 886, 255, 70, 21490, 15540, -409, 328, -205
32500, 174, 929, 275, 1260, 24360, 16170, -411, 337, -204
32501, 194, 989, 285, 2170, 26250, 16730, -414, 333, -196
32502, 213, 1062, 267, 2660, 27370, 17080, -408, 321, -205
32503, 153, 987, 247, 1400, 28000, 17290, -412, 327, -201
32504, 117, 931, 245, 0, 25060, 17010, -409, 333, -199
32505, 156, 922, 258, -770, 21280, 16800, -402, 340, -199
32506, 248, 977, 249, 0, 23100, 17080, -417, 330, -198
32507, 270, 986, 251, 3150, 33600, 18130, -406, 334, -208
32508, 104, 809, 253, 3220, 31920, 18200, -412, 331, -196
32509, 127, 816, 250, 2590, 26880, 18200, -405, 339, -187
32510, 187, 900, 226, 2660, 24850, 18410, -402, 340, -201
32511, 196, 971, 230, 3220, 26880, 18900, -415, 342, -195
32512, 88, 986, 254, 2590, 23100, 18340, -414, 340, -193
32513, 126, 999, 256, 980, 16240, 17640, -412, 331, -204
32514, 177, 996, 239, -70, 11970, 17010, -414, 336, -192
32515, 202, 969, 214, -490, 10430, 16730, -426, 345, -184
32516, 156, 830, 232, -910, 9520, 16240, -421, 337, -189
32517, 91, 839, 266, -2100, -560, 14630, -424, 354, -195
32518, 191, 1001, 260, -1470, -2170, 14140, -420, 333, -193
32519, 259, 1084, 260, 210, 1610, 14140, -418, 340, -183
32520, 212, 1086, 258, 1190, 4270, 13790, -412, 340, -192
32521, 118, 998, 290, -1960, -7840, 11620, -415, 342, -198
32522, 189, 1082, 223, -3290, -12880, 10710, -421, 345, -189
32523, 224, 1021, 202, -3430, -11830, 10080, -421, 343, -184
32524, 163, 885, 209, -3290, -9800, 9240, -420, 339, -193
32525, 113, 797, 241, -3850, -11760, 7910, -418, 337, -195
32526, 256, 1014, 234, -4690, -18340, 5740, -414, 337, -205
32527, 281, 1026, 256, -3570, -14210, 5250, -427, 354, -192
32528, 214, 969, 260, -2170, -10360, 4970, -426, 345, -201
32529, 153, 910, 267, -1120, -9310, 4480, -430, 349, -195
32530, 126, 942, 233, -770, -10780, 3990, -427, 346, -211
32531, 117, 997, 208, -2100, -14560, 3360, -426, 345, -195
32532, 62, 995, 212, -3850, -18760, 2940, -426, 355, -213
32533, 41, 1000, 218, -5950, -24640, 2100, -421, 352, -196
32534, 76, 1072, 207, -7910, -29750, 1260, -417, 357, -204
32535, 107, 1045, 225, -9100, -31290, 140, -429, 357, -205
32536, 166, 931, 246, -8680, -29470, 70, -426, 349, -211
32537, 151, 871, 245, -7840, -27020, 140, -439, 348, -196
32538, 163, 893, 250, -6580, -24360, 420, -432, 360, -207
32539, 150, 967, 247, -5110, -20930, 630, -421, 352, -222
32540, 129, 995, 239, -3430, -14420, 1400, -429, 355, -211
32541, 62, 911, 235, -4060, -15470, 1610, -427, 349, -201
32542, 72, 922, 221, -5180, -17920, 1750, -432, 352, -207
32543, 115, 960, 217, -5600, -18200, 2100, -435, 348, -199
32544, 159, 933, 213, -5110, -15260, 2660, -436, 348, -211
32545, 160, 895, 255, -3500, -7840, 3780, -427, 343, -202
32546, 141, 946, 274, -2730, -6090, 4340, -430, 351, -211
32547, 191, 900, 258, -1470, -3990, 5040, -435, 348, -225
32548, 189, 855, 237, 560, 490, 5810, -439, 352, -217
32549, 202, 826, 227, 4270, 8960, 7420, -429, 342, -204
32550, 154, 919, 224, 4970, 10010, 7910, -430, 336, -211
32551, 142, 1040, 235, 4620, 7910, 8120, -435, 351, -210
32552, 157, 1122, 223, 3150, 4480, 8120, -429, 351, -208
32553, 141, 1127, 233, 1400, -70, 8050, -442, 343, -202
32554, 87, 1017, 216, -2310, -8960, 7630, -433, 348, -219
32555, 107, 910, 225, -3640, -12390, 7420, -432, 345, -211
32556, 115, 878, 225, -4060, -14560, 7070, -427, 349, -219
32557, 183, 875, 255, -3150, -14770, 6860, -433, 346, -216
32558, 271, 949, 241, -910, -10500, 7000, -438, 334, -210
32559, 263, 879, 239, 3570, 3500, 8120, -435, 340, -219
32560, 195, 858, 226, 3780, 5040, 8400, -439, 349, -210
32561, 186, 886, 227, 3080, 2730, 8610, -432, 337, -216
32562, 200, 1005, 197, 2380, 1470, 8610, -439, 352, -201
32563, 208, 1032, 218, 2030, 3710, 8750, -435, 354, -219
32564, 193, 982, 233, 1260, 2800, 8470, -432, 352, -219
32565, 225, 948, 226, 0, 70, 8050, -435, 346, -219
32566, 268, 961, 209, -630, 350, 7910, -429, 346, -208
32567, 310, 950, 200, -630, 2940, 7980, -439, 343, -214
32568, 226, 812, 238, 70, 7700, 7840, -447, 348, -213
32569, 247, 832, 259, 630, 6650, 7490, -441, 346, -210
32570, 292, 955, 240, 1960, 8120, 7560, -430, 342, -211
32571, 336, 996, 224, 3850, 13020, 7980, -439, 340, -216
32572, 254, 960, 214, 4480, 15820, 7840, -433, 348, -208
32573, 137, 956, 230, 560, 1820, 6440, -436, 345, -213
32574, 207, 1065, 230, -1400, -4410, 5670, -433, 351, -207
32575, 302, 1101, 198, -1680, -3990, 5110, -436, 349, -213
32576, 272, 969, 229, -1540, -1960, 4480, -447, 351, -216
32577, 236, 859, 257, -1890, -6860, 3150, -433, 348, -225
32578, 289, 949, 228, -910, -6020, 3010, -442, 346, -217
32579, 346, 954, 228, 1330, 140, 3220, -441, 355, -217
32580, 280, 917, 220, 3290, 6160, 3080, -436, 348, -211
32581, 222, 912, 247, 3780, 6510, 2870, -444, 360, -213
32582, 197, 992, 207, 1120, -1190, 2520, -438, 354, -225
32583, 179, 655, 226, 70, -3710, 2380, -439, 363, -210
32584, 113, 291, 202, 770, -4760, 1890, -444, 357, -208
32585, 178, 451, 142, 4270, -2590, 1820, -444, 349, -210
32586, 349, 875, 223, 8400, 7420, 2380, -435, 360, -219
32587, 426, 1361, 307, 9870, 15260, 3290, -438, 354, -214
32588, 182, 1452, 238, 5950, 7700, 2450, -447, 358, -213
32589, 251, 1499, 247, 910, -6860, 1890, -442, 355, -210
32590, 73, 1333, 192, -2730, -11340, 630, -441, 355, -213
32591, 23, 679, 157, -6230, -20790, -1470, -442, 361, -222
32592, 33, 562, 172, -7000, -28210, -2310, -435, 360, -219
32593, 84, 554, 197, -6230, -28840, -2800, -444, 349, -211
32594, 238, 661, 214, -3850, -26460, -2170, -430, 346, -214
32595, 305, 792, 242, 350, -16800, -1260, -439, 351, -204
32596, 330, 1292, 290, 6020, -2590, 560, -445, 354, -211
32597, 189, 1287, 244, 5740, -1680, 840, -438, 354, -208
32598, 109, 1206, 233, 3570, -5740, 910, -442, 345, -216
32599, 65, 1047, 190, -350, -13510, 630, -444, 349, -205
32600, -6, 811, 140, -3990, -23310, 210, -442, 346, -202
32601, 63, 1094, 180, -9380, -36120, -490, -445, 351, -201
32602, 116, 1175, 215, -11270, -39900, -1120, -445, 346, -211
32603, 66, 1181, 269, -12670, -42210, -2240, -448, 349, -217
32604, 163, 1010, 272, -13020, -44940, -2870, -436, 334, -222
32605, 334, 581, 244, -7840, -35140, -2310, -439, 342, -217
32606, 367, 585, 207, -2800, -20580, -1470, -448, 343, -219
32607, 337, 651, 204, 1890, -6510, -560, -441, 345, -213
32608, 270, 769, 239, 4480, 2940, 70, -445, 340, -213
32609, 236, 1003, 237, 4620, 3990, 280, -453, 334, -223
32610, 320, 1426, 208, 1470, 560, 490, -445, 334, -225
32611, 275, 1393, 204, -770, 910, 560, -447, 339, -208
32612, 219, 1189, 214, -3710, -1680, 490, -453, 336, -217
32613, 121, 959, 198, -6580, -6160, -70, -433, 334, -211
32614, 184, 812, 203, -7910, -9240, -350, -435, 348, -214
32615, 335, 713, 200, -3640, -1190, 280, -442, 342, -211
32616, 325, 700, 219, 0, 9660, 770, -442, 346, -219
32617, 280, 791, 232, 2590, 15050, 1330, -448, 343, -214
32618, 279, 921, 231, 3570, 16450, 1890, -441, 345, -222
32619, 233, 1175, 189, 2100, 12320, 2520, -447, 351, -208
32620, 170, 1136, 198, -70, 8330, 2450, -442, 328, -207
32621, 98, 1070, 200, -3080, 910, 2030, -454, 339, -202
32622, 94, 1010, 220, -5670, -8120, 1470, -441, 343, -210
32623, 167, 1004, 202, -7070, -14140, 1120, -447, 345, -199
32624, 290, 873, 208, -4970, -8890, 980, -436, 343, -208
32625, 268, 811, 213, -3780, -4970, 700, -445, 348, -211
32626, 264, 820, 221, -3010, -3850, 210, -442, 346, -217
32627, 292, 884, 209, -2590, -3850, -140, -457, 349, -214
32628, 339, 946, 183, -1540, 1540, -630, -447, 348, -214
32629, 292, 948, 197, -1680, 4270, -1120, -448, 351, -214
32630, 272, 923, 232, -2450, 3430, -1680, -445, 348, -222
32631, 276, 966, 204, -3010, 2100, -2380, -451, 348, -211
32632, 318, 938, 207, -2520, 1960, -2520, -445, 343, -208
32633, 313, 718, 228, 1190, 12320, -2380, -456, 352, -205
32634, 308, 648, 221, 3500, 17570, -2100, -447, 357, -210
32635, 329, 717, 192, 5740, 21770, -1470, -450, 346, -226
32636, 314, 896, 191, 7630, 26880, -700, -447, 352, -216
32637, 324, 1046, 231, 8260, 29960, 140, -448, 355, -205
32638, 249, 1290, 240, 5950, 26950, 770, -444, 360, -214
32639, 226, 1266, 196, 4060, 23380, 770, -450, 355, -207
32640, 194, 1106, 161, 1890, 18900, 1260, -436, 361, -213
32641, 165, 886, 90, -1050, 15680, 1400, -448, 358, -205
32642, 35, 661, 13, -11480, -3780, 350, -445, 364, -210
32643, -74, 808, 304, -14980, -20440, -1470, -445, 360, -216
32644, 169, 1327, 296, -12950, -28560, -2170, -450, 369, -222
32645, 403, 1392, 350, -7350, -20090, -1260, -451, 361, -208
32646, 462, 1064, 379, -420, -7280, -280, -448, 355, -222
32647, 331, 726, 217, 5390, 8540, -140, -438, 373, -217
32648, 295, 840, 118, 4970, 8680, -70, -445, 373, -216
32649, 182, 885, 80, 3710, 6860, -70, -453, 349, -208
32650, 100, 907, 115, 630, 2240, -630, -451, 355, -204
32651, -59, 1042, 143, -4340, -9450, -2380, -447, 355, -213
32652, 59, 1377, 244, -14840, -42420, -5460, -450, 355, -214
32653, 201, 1321, 243, -16240, -49280, -5740, -442, 355, -228
32654, 261, 1027, 266, -14840, -45500, -6090, -444, 360, -219
32655, 221, 717, 247, -12810, -39970, -6440, -442, 361, -222
32656, 196, 489, 236, -6930, -30800, -7000, -456, 360, -223
32657, 290, 724, 187, -3430, -21630, -6370, -454, 342, -219
32658, 292, 872, 155, -770, -11900, -5740, -451, 357, -226
32659, 195, 904, 247, -1120, -8960, -5880, -447, 346, -229
32660, 106, 1057, 320, -3500, -15960, -6720, -451, 348, -229
32661, 408, 1455, 257, -3080, -20720, -7350, -448, 357, -228
32662, 480, 1068, 206, -280, -7420, -7000, -451, 352, -234
32663, 242, 571, 177, 840, 1330, -7070, -447, 345, -241
32664, 38, 299, 167, -1190, -3570, -7560, -444, 346, -232
32665, 4, 415, 118, -3640, -14840, -8050, -451, 352, -231
32666, 241, 807, 190, -2100, -11690, -9240, -447, 351, -234
32667, 281, 823, 303, 210, -5110, -10220, -445, 346, -232
32668, 302, 934, 366, 1680, -4410, -11340, -442, 348, -235
32669, 450, 1252, 336, 3080, -5110, -11550, -445, 346, -241
32670, 594, 1178, 259, 8610, 14840, -10920, -444, 357, -238
32671, 389, 1056, 231, 10150, 25130, -10990, -448, 351, -243
32672, 193, 1005, 194, 8820, 24430, -11480, -438, 343, -241
32673, 112, 1059, 154, 5040, 15680, -12110, -444, 345, -235
32674, 144, 1067, 131, 770, 5950, -12810, -444, 346, -246
32675, 130, 894, 176, -5530, -4620, -14280, -439, 345, -247
32676, 142, 830, 235, -6650, -8120, -14980, -447, 351, -238
32677, 226, 911, 257, -5250, -7560, -15400, -445, 343, -246
32678, 362, 989, 274, -1680, -1260, -15120, -444, 343, -244
32679, 435, 1006, 259, 2800, 10220, -14630, -441, 349, -246
32680, 304, 898, 218, 7630, 25480, -13370, -432, 339, -240
32681, 171, 920, 189, 6650, 23240, -13300, -441, 345, -247
32682, 98, 962, 163, 4550, 16940, -13510, -439, 337, -240
32683, 91, 947, 164, 2100, 9240, -14070, -432, 340, -241
32684, 100, 936, 208, -1400, -2240, -15750, -441, 337, -246
32685, 120, 977, 219, -2170, -6790, -16660, -432, 342, -241
32686, 173, 1020, 246, -2100, -9800, -17220, -430, 343, -244
32687, 200, 1000, 258, -1260, -10360, -17500, -435, 340, -249
32688, 210, 975, 236, -280, -10080, -17640, -433, 328, -252
32689, 101, 840, 224, 490, -10920, -18340, -432, 337, -240
32690, 58, 835, 207, 0, -13510, -18760, -430, 342, -250
32691, 80, 848, 199, -770, -17010, -19250, -423, 337, -256
32692, 77, 850, 200, -1680, -19110, -19740, -430, 334, -250
32693, 108, 928, 221, -2590, -20860, -20230, -432, 343, -258
32694, 142, 1187, 233, -4620, -22540, -21000, -430, 345, -255
32695, 155, 1207, 264, -5950, -23940, -21210, -432, 333, -250
32696, 85, 1135, 264, -7490, -25620, -21560, -426, 337, -259
32697, 66, 1011, 265, -8960, -28910, -21980, -423, 333, -256
32698, 117, 872, 246, -9100, -29960, -23030, -420, 327, -264
32699, 211, 845, 236, -7490, -24640, -22960, -430, 340, -267
32700, 227, 805, 262, -5250, -16800, -22750, -421, 339, -268
32701, 204, 832, 278, -3010, -10500, -22610, -420, 342, -273
32702, 205, 968, 271, -1330, -7210, -22610, -423, 331, -274
32703, 168, 979, 235, 70, 1610, -22120, -420, 336, -264
32704, 100, 875, 254, -840, 2240, -22190, -414, 325, -259
32705, 62, 845, 264, -2100, -1190, -22610, -418, 327, -265
32706, 120, 900, 255, -2520, -2380, -22960, -414, 334, -271
32707, 217, 960, 244, -1190, 1750, -22820, -418, 319, -253
32708, 215, 893, 291, 2310, 13510, -22540, -411, 331, -261
32709, 187, 979, 284, 2870, 14070, -22680, -418, 322, -267
32710, 200, 1087, 258, 2870, 13510, -22750, -418, 316, -268
32711, 198, 1096, 249, 2730, 15960, -22750, -405, 322, -261
32712, 118, 876, 264, 2870, 19040, -23240, -406, 319, -259
32713, 148, 861, 253, 3430, 18480, -23310, -415, 309, -264
32714, 189, 847, 241, 4690, 21630, -23170, -408, 301, -270
32715, 204, 832, 237, 6860, 27160, -22610, -409, 315, -261
32716, 164, 850, 247, 8680, 32480, -22330, -394, 319, -262
32717, 124, 1022, 248, 9030, 33600, -21910, -397, 307, -255
32718, 111, 1146, 226, 7700, 30520, -21980, -388, 312, -264
32719, 49, 1167, 211, 5530, 26530, -22190, -397, 306, -258
32720, -6, 1105, 253, 2520, 20510, -22400, -387, 307, -255
32721, -53, 1033, 249, -420, 12740, -24080, -391, 301, -250
32722, 100, 913, 261, -1470, 4550, -24640, -390, 303, -255
32723, 193, 835, 269, 1330, 11200, -24780, -399, 300, -249
32724, 267, 736, 253, 5040, 21840, -24430, -384, 307, -252
32725, 229, 663, 252, 8190, 30940, -24150, -388, 304, -253
32726, 169, 869, 191, 9380, 38710, -23870, -387, 298, -252
32727, 145, 1019, 196, 7770, 40250, -24010, -378, 304, -253
32728, 125, 1107, 227, 5320, 40880, -24290, -385, 301, -247
32729, 149, 1179, 268, 2870, 40670, -24360, -370, 288, -249
32730, 196, 1226, 289, 1330, 43260, -24290, -370, 280, -244
32731, 165, 939, 319, 2100, 57120, -22750, -370, 295, -240
32732, 147, 796, 271, 3990, 63490, -21770, -375, 295, -235
32733, 181, 634, 309, 7070, 70980, -20020, -372, 292, -237
32734, 244, 634, 322, 11900, 81200, -18130, -369, 295, -240
32735, 329, 755, 286, 24570, 111160, -13020, -364, 289, -231
32736, 238, 990, 252, 28770, 122080, -10780, -357, 292, -225
32737, 70, 1097, 220, 29190, 123410, -9520, -361, 277, -226
32738, -81, 1254, 168, 25060, 110670, -9520, -355, 285, -214
32739, -171, 1295, 156, 17850, 91560, -10220, -357, 271, -211
32740, -138, 1203, 188, 3710, 50540, -12250, -357, 282, -205
32741, -86, 1082, 197, 420, 40390, -12460, -349, 277, -195
32742, -5, 935, 219, -70, 38360, -12320, -352, 283, -202
32743, 15, 771, 230, 1680, 41230, -11690, -349, 282, -198
32744, 68, 666, 268, 4620, 46690, -10920, -348, 286, -196
32745, 183, 767, 242, 12250, 61460, -8190, -351, 285, -190
32746, 91, 857, 214, 15120, 69090, -7070, -352, 285, -195
32747, 65, 929, 197, 16450, 71680, -5880, -343, 279, -177
32748, -36, 1060, 191, 15890, 69790, -5810, -345, 285, -181
32749, -74, 1204, 170, 8330, 49980, -6510, -342, 273, -163
32750, -119, 1331, 158, 3220, 37590, -7000, -337, 280, -171
32751, -147, 1203, 142, -1400, 26670, -7770, -348, 286, -168
32752, -188, 1037, 159, -4620, 18410, -8400, -352, 285, -169
32753, -123, 886, 182, -6020, 15260, -8610, -343, 288, -163
32754, 20, 759, 218, -2100, 23660, -7210, -339, 286, -168
32755, 49, 794, 218, 1330, 31640, -6020, -336, 288, -163
32756, 16, 917, 232, 4340, 37520, -5180, -343, 288, -159
32757, 23, 1068, 222, 6160, 40810, -4480, -349, 279, -160
32758, 11, 1168, 193, 6860, 42000, -4200, -331, 286, -159
32759, -134, 1075, 155, 3360, 34930, -4130, -339, 276, -150
32760, -197, 1022, 122, -70, 25340, -4340, -343, 285, -147
32761, -176, 939, 142, -3080, 17360, -4340, -331, 271, -136
32762, -160, 925, 131, -4760, 13720, -4060, -333, 279, -138
32763, -119, 936, 144, -4410, 16660, -3010, -339, 267, -139
32764, -93, 977, 220, -3990, 17920, -2520, -343, 276, -139
32765, -65, 977, 231, -3500, 17640, -2240, -339, 279, -127
32766, -51, 989, 222, -2310, 19810, -1610, -337, 280, -135
32767, 2, 962, 187, -420, 25340, -770, -342, 280, -126
32768, -57, 843, 178, 2380, 34300, 630, -342, 270, -133
32769, -46, 926, 153, 2170, 34090, 1050, -337, 265, -130
32770, 15, 1075, 160, 1330, 34370, 1680, -340, 277, -120
32771, 4, 1181, 167, 140, 35560, 2240, -336, 270, -126
32772, 10, 1194, 175, -1050, 37870, 2800, -334, 271, -115
32773, -15, 998, 175, -1820, 43470, 3990, -333, 268, -124
32774, 17, 859, 182, -840, 49980, 5110, -339, 279, -106
32775, 69, 752, 194, 1470, 58660, 6860, -330, 283, -115
32776, 123, 768, 177, 4970, 69300, 8960, -336, 282, -106
32777, 154, 832, 163, 11480, 90930, 13580, -327, 273, -103
32778, 0, 981, 176, 12040, 94430, 15050, -346, 282, -99
32779, -68, 1156, 142, 10430, 89810, 15750, -331, 268, -96
32780, -73, 1293, 136, 6720, 80640, 16310, -333, 276, -84
32781, -166, 1407, 109, 1820, 68530, 16450, -337, 262, -75
32782, -361, 1243, 106, -9380, 35700, 16100, -339, 283, -82
32783, -309, 1146, 98, -13790, 19740, 16240, -342, 277, -76
32784, -291, 1006, 120, -16170, 10710, 16870, -346, 282, -82
32785, -308, 864, 126, -17080, 5950, 18130, -334, 283, -69
32786, -294, 770, 140, -16590, 3080, 19180, -346, 270, -81
32787, -230, 897, 161, -14140, -1820, 21140, -340, 285, -78
32788, -206, 1042, 206, -13020, -3570, 21840, -345, 279, -84
32789, -232, 1161, 165, -13090, -9030, 22260, -358, 282, -84
32790, -285, 1121, 195, -14910, -18550, 21630, -354, 291, -78
32791, -344, 973, 135, -22400, -48160, 19110, -348, 295, -93
32792, -354, 946, 131, -25130, -59850, 17850, -352, 297, -91
32793, -229, 893, 166, -25550, -65380, 17290, -349, 301, -100
32794, -190, 883, 184, -23870, -64820, 16450, -354, 283, -105
32795, -139, 852, 222, -21140, -61670, 16310, -351, 297, -103
32796, -128, 889, 249, -15120, -52640, 15610, -357, 297, -114
32797, 12, 924, 244, -12250, -45360, 15400, -357, 309, -108
32798, 7, 950, 218, -9520, -37240, 15330, -352, 298, -115
32799, 20, 875, 217, -7980, -29050, 15470, -355, 307, -118
32800, -28, 818, 223, -7630, -24990, 15400, -366, 303, -120
32801, 44, 951, 214, -8610, -18900, 15470, -361, 312, -114
32802, 60, 1034, 243, -7980, -11340, 15890, -355, 301, -115
32803, 74, 966, 286, -6580, -2520, 16590, -363, 313, -109
32804, 63, 825, 320, -3990, 6790, 17290, -361, 310, -115
32805, 179, 883, 274, 2590, 27370, 19740, -366, 316, -118
32806, 120, 741, 278, 4830, 35630, 21210, -360, 319, -109
32807, -21, 434, 287, 5950, 38220, 21700, -357, 309, -106
32808, -18, 172, 255, 7140, 34930, 21910, -364, 313, -108
32809, 105, 11, 204, 10920, 37730, 22540, -360, 309, -105
32810, 163, -11, 187, 26460, 65310, 25130, -364, 312, -96
32811, 194, 803, 247, 33530, 75250, 25830, -369, 315, -90
32812, 95, 2008, 288, 35000, 78680, 24430, -364, 318, -79
32813, -31, 2539, 364, 28070, 60830, 22540, -370, 321, -75
32814, -90, 2426, 422, 14490, 29890, 19390, -366, 324, -82
32815, -84, 1151, 178, -12600, -36610, 15400, -366, 318, -79
32816, -195, 414, 84, -16660, -44940, 14980, -364, 316, -85
32817, 4, -68, 94, -14350, -40600, 15260, -375, 312, -93
32818, 115, -215, 194, -8050, -29260, 16100, -370, 322, -87
32819, 230, -85, 310, 12250, -1050, 19180, -373, 318, -81
32820, 395, 525, 239, 25690, 22400, 20930, -378, 315, -78
32821, 478, 1990, 219, 35980, 49630, 21840, -382, 316, -81
32822, 47, 3274, 211, 34440, 57470, 19950, -378, 321, -81
32823, -412, 3539, 161, 17570, 23380, 13930, -369, 318, -66
32824, -350, 1904, 31, -35630, -108290, 3220, -361, 322, -78
32825, 44, 1395, -9, -49000, -137270, 2450, -384, 315, -90
32826, 149, 811, -93, -49070, -128520, 4270, -375, 318, -94
32827, 216, 345, -39, -42350, -99540, 6090, -381, 333, -93
32828, -125, -207, 105, -37310, -81970, 6160, -375, 312, -109
32829, 20, 69, 372, -28420, -99540, 2870, -376, 324, -111
32830, 436, 899, 173, -14350, -71750, 2870, -384, 318, -126
32831, 341, 1296, 175, 2450, -23660, 3150, -382, 316, -130
32832, 10, 1086, 359, 14350, 16100, 700, -375, 330, -124
32833, -298, 1397, 149, 4480, -20090, -7210, -379, 321, -127
32834, 112, 1805, 13, -6580, -43680, -7210, -384, 324, -127
32835, 303, 1536, 52, -13930, -46130, -5670, -385, 328, -118
32836, -73, 1008, 28, -19040, -47040, -4620, -384, 319, -130
32837, -202, 659, 49, -24430, -53830, -5530, -387, 319, -135
32838, 88, 807, 265, -26110, -63000, -8540, -375, 315, -147
32839, 454, 1063, 317, -17920, -41230, -7420, -381, 316, -148
32840, 591, 988, 325, -5460, -4900, -4690, -376, 319, -147
32841, 235, 558, 370, 6440, 27860, -2520, -379, 325, -145
32842, 139, 244, 348, 15260, 53550, -70, -373, 322, -144
32843, 288, 485, 61, 25270, 64960, 2100, -388, 321, -144
32844, 168, 720, 1, 27020, 75180, 3990, -379, 324, -133
32845, -41, 1347, 55, 22680, 70560, 4620, -382, 321, -121
32846, -319, 1930, 115, 11130, 43890, 3220, -381, 319, -115
32847, -174, 2041, 189, -17290, -30240, -70, -376, 325, -127
32848, -27, 1272, 238, -23590, -45080, 0, -379, 327, -141
32849, 88, 607, 218, -21980, -37590, 840, -378, 325, -132
32850, 150, 210, 142, -14770, -21700, 3150, -384, 334, -139
32851, 371, 121, 181, -5740, 3990, 5460, -373, 337, -139
32852, 34, -6, 158, 3780, 26110, 8680, -384, 337, -138
32853, -255, 185, 52, 3640, 20720, 8470, -382, 322, -129
32854, -63, 487, 25, 1540, 11970, 8120, -384, 339, -138
32855, -226, 1036, 26, -1470, 9030, 6860, -379, 331, -126
32856, -203, 1517, 104, -19110, -21420, 1820, -388, 339, -127
32857, -399, 1666, 389, -32620, -57330, -2450, -385, 331, -142
32858, -240, 2229, 532, -40040, -93450, -6790, -387, 339, -138
32859, 623, 2835, 523, -37100, -100030, -7840, -385, 339, -144
32860, 867, 2642, 336, -23310, -65940, -5810, -393, 333, -154
32861, 142, 346, 275, 3010, 16520, -1330, -387, 330, -148
32862, -381, -232, 132, 2590, 12600, -1820, -385, 336, -148
32863, -332, -170, 107, -2310, -10360, -3220, -388, 336, -150
32864, -40, 170, 19, -4060, -21840, -3220, -382, 328, -154
32865, 309, 366, -34, 0, -9310, -1890, -373, 324, -159
32866, -70, -32, 102, 5670, 19040, -280, -379, 327, -142
32867, -443, -1, 87, 1120, 5460, -2380, -382, 322, -153
32868, -269, 509, 37, -4130, -17360, -4900, -390, 328, -145
32869, -20, 1455, 6, -7280, -21350, -6440, -378, 325, -144
32870, 99, 2178, 95, -21350, -21280, -7980, -387, 324, -156
32871, -406, 2436, 66, -40110, -58170, -10220, -391, 321, -144
32872, -556, 1998, 541, -59640, -112280, -14070, -387, 327, -162
32873, 207, 2264, 683, -67270, -164360, -17220, -387, 313, -177
32874, 652, 2512, 333, -55160, -144340, -17710, -379, 319, -184
32875, 707, 1, 374, -5460, -3150, -13580, -390, 312, -193
32876, 238, -457, 198, 10010, 33880, -12950, -384, 327, -195
32877, -244, -470, 130, 12950, 38640, -16100, -384, 307, -189
32878, -585, -293, 217, 9450, 1750, -18270, -379, 319, -186
32879, 223, -48, 118, 8890, -9660, -19390, -378, 319, -189
32880, 441, 16, -9, 20090, 25340, -17360, -379, 319, -186
32881, -131, -136, 130, 22330, 43750, -17150, -376, 313, -196
32882, -131, 38, 120, 20020, 32760, -17780, -372, 315, -178
32883, -163, 1049, 32, 16170, 17920, -18830, -370, 328, -186
32884, 173, 2358, 111, 0, 5600, -18830, -382, 313, -177
32885, -320, 2374, 721, -12180, -31080, -22330, -370, 312, -181
32886, -259, 1924, 645, -20720, -65380, -26180, -373, 322, -184
32887, 213, 1860, 206, -20300, -80920, -27090, -379, 313, -180
32888, 378, 1451, 146, -11760, -54390, -24150, -376, 306, -189
32889, -136, -50, 246, 2310, 6300, -17640, -372, 307, -189
32890, -402, -84, 116, 1190, -11270, -17430, -369, 318, -184
32891, -206, 248, 93, -560, -22470, -17710, -373, 306, -195
32892, 129, 792, 69, 1540, -18480, -16310, -378, 304, -196
32893, 264, 1375, 53, 4830, 3080, -14700, -364, 309, -195
32894, -581, 1424, 347, -5530, -11130, -17780, -369, 300, -198
32895, -639, 1601, 378, -17010, -58170, -22610, -372, 304, -202
32896, -172, 1756, 267, -23940, -87500, -25830, -364, 306, -214
32897, 95, 1335, 143, -23100, -81130, -25690, -373, 306, -216
32898, 171, 479, 185, -14770, -44940, -23450, -372, 300, -219
32899, -276, -48, 169, -15050, -52360, -24080, -378, 307, -229
32900, -178, 368, 120, -15750, -62300, -24990, -367, 298, -226
32901, 16, 856, 167, -14560, -61110, -25550, -369, 312, -238
32902, 19, 984, 396, -10710, -48020, -26950, -366, 306, -238
32903, 164, 1260, 411, 1330, -31920, -31500, -370, 300, -243
32904, 342, 1359, 283, 7630, -17500, -30800, -364, 300, -243
32905, 279, 1128, 203, 11480, -2170, -28560, -367, 307, -247
32906, -8, 756, 178, 10500, 2240, -26530, -354, 300, -244
32907, -376, 652, 154, 4410, -14070, -26110, -363, 301, -244
32908, -268, 1116, 178, -7630, -42700, -27650, -366, 301, -244
32909, -73, 1118, 170, -9100, -34860, -27230, -357, 300, -238
32910, -163, 848, 182, -9730, -25270, -25970, -361, 291, -246
32911, -166, 636, 203, -11620, -24430, -25130, -357, 307, -244
32912, -28, 1112, 251, -16310, -36610, -25130, -361, 295, -256
32913, 0, 1729, 328, -16590, -31500, -25550, -366, 292, -262
32914, -41, 1928, 362, -16590, -23730, -26460, -358, 300, -252
32915, -210, 1808, 423, -18410, -24920, -27930, -354, 294, -255
32916, -330, 1454, 400, -22540, -36960, -29680, -360, 283, -261
32917, -40, 621, 271, -28140, -55090, -30100, -360, 286, -265
32918, 107, 411, 238, -24990, -44940, -28770, -352, 279, -276
32919, 341, 284, 264, -17710, -22540, -27370, -352, 289, -283
32920, 342, 242, 345, -7770, 2380, -26810, -366, 277, -279
32921, 398, 329, 390, 3920, 25270, -27650, -355, 283, -270
32922, 485, 778, 256, 28280, 75950, -26950, -351, 276, -267
32923, 217, 1043, 197, 36400, 96740, -25060, -343, 276, -255
32924, -74, 1084, 253, 37100, 94360, -24570, -348, 264, -252
32925, -485, 1146, 266, 29820, 67480, -25620, -345, 274, -247
32926, -306, 1018, 250, 11410, 11830, -28980, -328, 280, -252
32927, -54, 779, 221, 9450, 11200, -29540, -340, 277, -250
32928, 46, 517, 198, 11480, 24430, -29400, -339, 262, -252
32929, 71, 253, 208, 13930, 37870, -29260, -340, 271, -238
32930, 22, 262, 185, 14840, 43540, -29680, -340, 265, -241
32931, 79, 1232, 228, 12320, 46970, -30380, -322, 253, -249
32932, -30, 1554, 284, 8190, 45290, -30590, -330, 267, -240
32933, -257, 1509, 312, 1540, 34860, -31710, -330, 261, -237
32934, -378, 1166, 451, -6020, 13370, -34090, -318, 259, -243
32935, -147, 992, 552, -9520, -9940, -37520, -319, 256, -232
32936, 566, 1152, 272, 9380, 26040, -38500, -321, 247, -235
32937, 536, 825, 216, 24010, 72380, -36260, -309, 259, -232
32938, -31, 506, 225, 31850, 95130, -35490, -309, 261, -235
32939, -461, 553, 212, 28350, 78540, -37940, -318, 247, -235
32940, -278, 1670, 120, 7840, 8120, -44310, -312, 240, -235
32941, -207, 1735, 122, 1820, -910, -45360, -306, 246, -225
32942, -387, 1226, 143, -2380, -5810, -46550, -310, 231, -223
32943, -579, 648, 212, -8050, -21140, -48720, -297, 244, -225
32944, -579, 406, 186, -14700, -45290, -51730, -303, 243, -237
32945, 55, 777, 137, -16870, -50050, -53970, -304, 232, -243
32946, 164, 584, 206, -11900, -27650, -53270, -300, 234, -243
32947, 88, 248, 266, -6580, -5950, -53690, -298, 229, -249
32948, 30, 32, 292, -2870, 2100, -54530, -291, 228, -247
32949, 184, 101, 279, 1680, 10920, -55370, -288, 228, -241
32950, 375, 422, 188, 20020, 63280, -52850, -297, 228, -246
32951, 338, 364, 265, 31010, 93030, -51590, -294, 211, -237
32952, 252, 640, 293, 41790, 119280, -50680, -286, 214, -228
32953, 39, 1633, 205, 50540, 138950, -50540, -282, 211, -225
32954, -695, 2742, 69, 48510, 137130, -53900, -286, 213, -213
32955, -1135, 1986, 136, 34510, 94430, -59780, -283, 208, -202
32956, -1278, 1354, 98, 15050, 20230, -66850, -268, 211, -204
32957, -792, 1115, 27, -1190, -44800, -71190, -267, 204, -202
32958, -208, 1105, -58, -7840, -66710, -70700, -270, 207, -208
32959, -273, 847, -23, -5740, -29330, -64330, -276, 196, -213
32960, -717, 574, 55, -10010, -34650, -66080, -259, 189, -219
32961, -842, 481, 89, -18200, -61950, -70700, -264, 184, -220
32962, -595, 565, 86, -24780, -87570, -75250, -261, 180, -240
32963, -176, 601, 55, -25410, -74410, -77560, -259, 175, -249
32964, 165, 300, 148, -14770, -56560, -77490, -255, 186, -259
32965, -31, 290, 192, -10080, -43330, -78820, -247, 187, -255
32966, -140, 545, 177, -5880, -34020, -81480, -256, 174, -262
32967, -369, 823, 156, -420, -17080, -85260, -247, 160, -255
32968, -464, 577, 148, 10010, 21000, -90510, -258, 169, -265
32969, -505, 547, 83, 10640, 24220, -91910, -237, 150, -265
32970, -671, 876, 64, 6860, 14910, -93520, -246, 145, -271
32971, -846, 1327, 74, 350, -3500, -95480, -238, 150, -274
32972, -937, 1407, 101, -7700, -24850, -97790, -235, 136, -286
32973, -909, 703, 145, -24220, -82320, -104370, -238, 136, -288
32974, -752, 495, 133, -29820, -107240, -107940, -235, 124, -292
32975, -452, 467, 90, -31850, -118230, -110180, -234, 120, -294
32976, -92, 484, 74, -29470, -106470, -110180, -237, 114, -304
32977, -36, 456, 83, -19390, -42630, -106190, -237, 103, -322
32978, -271, 453, 120, -15050, -11060, -104440, -232, 102, -330
32979, -483, 573, 106, -11480, 14980, -103460, -226, 82, -321
32980, -508, 673, 122, -7980, 35910, -102900, -228, 84, -336
32981, -402, 689, 115, -3220, 58240, -101850, -226, 73, -328
32982, -58, 659, 10, 13580, 119840, -94430, -220, 75, -322
32983, -91, 667, -72, 23870, 154000, -87780, -204, 57, -318
32984, -45, 570, -106, 32760, 183400, -81270, -207, 43, -304
32985, -231, 462, -137, 39550, 210280, -74270, -208, 39, -289
32986, -353, 382, -177, 43960, 230930, -68950, -201, 57, -270
32987, -594, 632, -459, 49070, 246470, -63000, -196, 42, -252
32988, -757, 903, -623, 51660, 250040, -61250, -207, 39, -235
32989, -1360, 1237, -603, 50820, 243250, -63420, -193, 27, -214
32990, -2069, 1443, -766, 46130, 222460, -71470, -201, 31, -183
32991, -1290, 1127, -593, 36330, 185080, -81480, -190, 13, -184
32992, -497, 599, -536, 34440, 175000, -79100, -190, 9, -160
32993, -548, 661, -654, 34300, 163800, -76370, -187, 10, -142
32994, -743, 687, -790, 33110, 148680, -74830, -198, -4, -130
32995, -987, 765, -916, 29470, 128800, -76440, -199, -3, -120
32996, -996, 965, -1039, 19110, 68880, -86170, -187, -16, -121
32997, -607, 763, -898, 16730, 54320, -89250, -199, -30, -114
32998, -403, 504, -769, 16030, 50050, -89880, -196, -36, -111
32999, -466, 344, -711, 15400, 44590, -89460, -183, -37, -112
33000, -735, 283, -679, 13440, 30310, -90300, -178, -54, -118
33001, -879, 285, -581, 11130, -3150, -96390, -195, -45, -111
33002, -907, 232, -413, 13580, -4620, -100730, -190, -60, -117
33003, -1056, 137, -243, 17920, 2450, -106820, -187, -52, -121
33004, -1082, 91, -114, 22470, 7280, -114240, -187, -76, -127
33005, -878, 110, 4, 27720, 6300, -125930, -190, -79, -127
33006, -582, 163, 60, 29120, 4060, -129290, -190, -87, -133
33007, -545, 132, 66, 30240, 2450, -132160, -193, -93, -126
33008, -575, 135, 43, 31430, 4830, -135240, -192, -108, -138
33009, -621, 188, -23, 33250, 9450, -138600, -195, -106, -130
33010, -655, 139, -136, 38710, 23450, -146230, -196, -132, -130
33011, 1783, 472, 956, 54670, 121800, -198030, -202, -133, -127
33012, -3997, 1717, -3997, -95620, 1271760, 234080, -213, -117, -25
33013, -3997, -3675, -3997, 3080, -196630, 557480, -181, -103, -90
33014, -3218, 3929, 3050, 26040, -559650, 22470, -189, -94, -82
33015, 486, 3465, 3448, -2240, 316680, -164080, -183, -112, -72
33016, -2535, -3347, -3997, -23100, 35490, 23310, -187, -112, -94
33017, 1564, 2189, 2262, 76510, -388080, -132720, -195, -112, -78
33018, -1111, -1632, -3997, -78750, 317030, -46480, -184, -124, -117
33019, 2444, 2178, -3919, -56280, 423290, -22120, -201, -120, -82
33020, -830, 1154, 1828, 73010, -308770, -28350, -184, -121, -111
33021, -2048, -102, -851, -50260, 308560, 41160, -198, -115, -85
33022, -1224, 421, -384, 30590, -262220, -40040, -183, -135, -109
33023, -48, 821, -874, -14630, 26530, 7560, -196, -121, -96
33024, -1470, -115, -962, -6160, 16660, 3920, -187, -123, -97
33025, -528, 109, 1011, 2030, -45360, -8260, -184, -133, -102
33026, -1464, 407, -1244, -12880, 34650, 5110, -193, -130, -105
33027, -245, 428, 362, 9100, -78680, -7280, -198, -117, -96
33028, -832, 151, -422, -4620, 62230, 6300, -196, -124, -102
33029, -918, 408, -370, 3010, -13650, -2170, -193, -127, -97
33030, -1049, 421, -432, -2730, 19180, 3290, -195, -123, -102
33031, -612, 396, -50, 5250, -29400, -3990, -189, -121, -106
33032, -1145, 206, -476, -6510, 35630, 4550, -198, -126, -102
33033, -956, 264, -629, -1960, -4900, -350, -199, -126, -96
33034, -713, 325, 164, -140, 6370, 700, -181, -129, -99
33035, -969, 261, -493, 1470, -9940, -1470, -187, -120, -105
33036, -897, 294, 34, -1400, 20650, 2660, -193, -121, -90
33037, -1003, 380, -496, 2450, -12740, -1820, -195, -130, -108
33038, -1003, 425, -396, -210, -2310, -560, -196, -129, -99
33039, -808, 271, -60, 630, -8610, -910, -199, -117, -99
33040, -1014, 373, -441, -2870, 10290, 1330, -192, -135, -106
33041, -796, 226, 3, 1820, -11620, -1470, -190, -124, -94
33042, -1090, 343, -551, -2100, 12390, 1260, -195, -117, -102
33043, -1020, 369, -519, -1330, 10710, 910, -187, -118, -105
33044, -800, 271, 32, 1400, -3360, -140, -195, -121, -102
33045, -1093, 359, -520, -1260, 6930, 490, -190, -132, -115
33046, -830, 286, -83, 1120, -7910, -630, -192, -123, -96
33047, -799, 268, -87, 910, -7840, -770, -184, -121, -94
33048, -1004, 339, -320, -1750, 11130, 1050, -192, -129, -96
33049, -854, 267, -188, 1750, -10850, -1120, -192, -123, -91
33050, -1007, 345, -325, -1610, 14350, 1470, -195, -129, -99
33051, -824, 321, -197, 2450, -15750, -1890, -187, -114, -100
33052, -851, 319, -213, 1750, -14350, -1540, -198, -118, -106
33053, -996, 295, -274, -2030, 13930, 1540, -192, -133, -111
33054, -880, 330, -260, 1610, -12670, -1330, -186, -124, -109
33055, -925, 308, -212, -1120, 9240, 770, -190, -126, -97
33056, -886, 340, -283, 1190, -8540, -1050, -198, -130, -100
33057, -953, 334, -357, 910, -7070, -770, -192, -127, -97
33058, -898, 299, -145, -840, 7630, 840, -195, -127, -103
33059, -936, 356, -372, 910, -8680, -1190, -189, -123, -102
33060, -870, 291, -106, -980, 7700, 700, -198, -118, -102
33061, -877, 274, -118, -700, 6580, 770, -193, -123, -102
33062, -971, 352, -378, 630, -4480, -560, -196, -123, -106
33063, -852, 294, -125, -140, 3080, 210, -189, -118, -100
33064, -977, 353, -364, 140, -1470, -420, -192, -120, -108
33065, -851, 289, -127, -70, 490, -70, -192, -133, -102
33066, -836, 298, -133, 280, -1960, -210, -192, -123, -106
33067, -993, 337, -358, -420, 2520, 70, -178, -123, -106
33068, -830, 308, -137, 490, -2870, -490, -190, -124, -102
33069, -999, 324, -341, -490, 3780, 210, -193, -120, -100
33070, -844, 308, -162, 490, -3640, -350, -181, -117, -106
33071, -849, 320, -192, 630, -4970, -560, -187, -132, -103
33072, -976, 319, -290, -700, 5600, 420, -192, -117, -99
33073, -862, 320, -214, 770, -6020, -840, -199, -127, -108
33074, -968, 307, -262, -840, 6720, 630, -190, -117, -93
33075, -956, 306, -248, -840, 7210, 770, -186, -123, -100
33076, -883, 335, -257, 980, -6790, -910, -183, -120, -103
33077, -944, 301, -229, -770, 6720, 630, -192, -117, -94
33078, -898, 335, -269, 770, -6230, -770, -192, -130, -100
33079, -928, 298, -213, -770, 6090, 700, -201, -127, -106
33080, -912, 300, -198, -560, 5180, 420, -190, -127, -97
33081, -928, 337, -300, 560, -4550, -700, -193, -129, -96
33082, -899, 300, -185, -490, 4410, 420, -192, -123, -96
33083, -941, 335, -308, 350, -3640, -420, -195, -127, -100
33084, -890, 301, -182, -420, -2800, -420, -190, -123, -100
33085, -880, 305, -182, -210, 2310, 210, -187, -120, -99
33086, -955, 330, -308, 210, -1400, -280, -186, -123, -108
33087, -875, 306, -184, -140, 1190, 70, -193, -130, -106
33088, -963, 326, -307, 0, -70, -70, -189, -120, -108
33089, -963, 323, -299, -70, 1050, 0, -193, -115, -108
33090, -867, 316, -196, 280, -1260, -210, -193, -123, -109
33091, -965, 318, -289, -280, 1960, 70, -190, -126, -108
33092, -872, 318, -206, 280, -1960, -280, -192, -127, -102
33093, -962, 315, -282, -350, 2660, 210, -187, -123, -105
33094, -955, 313, -269, -350, 3150, 210, -196, -121, -100
33095, -879, 325, -227, 420, -3080, -490, -189, -126, -111
33096, -951, 309, -257, -490, 3710, 280, -189, -126, -112
33097, -889, 326, -241, 420, -3500, -490, -196, -123, -93
33098, -942, 309, -246, 490, -3640, -490, -192, -127, -100
33099, -934, 307, -236, -420, 3850, 350, -196, -120, -105
33100, -905, 328, -258, 490, -3500, -490, -186, -123, -99
33101, -927, 306, -230, -420, 3640, 350, -192, -124, -102
33102, -912, 330, -267, 350, -3150, -420, -187, -126, -99
33103, -920, 329, -271, 350, -2660, -420, -201, -121, -96
33104, -910, 308, -218, -350, 2800, 280, -193, -123, -103
33105, -930, 325, -276, 210, -2170, -350, -190, -121, -102
33106, -902, 310, -216, -210, 2170, 210, -190, -132, -99
33107, -933, 326, -279, 210, -1610, -210, -183, -129, -97
33108, -940, 322, -276, 70, -910, -210, -198, -121, -103
33109, -893, 314, -216, -70, 910, 0, -192, -112, -94
33110, -942, 321, -276, 0, -210, -70, -190, -123, -105
33111, -889, 318, -219, 0, 140, -70, -193, -121, -103
33112, -944, 318, -273, 70, -420, -210, -189, -124, -103
33113, -945, 315, -267, -70, 980, 0, -196, -124, -93
33114, -891, 320, -227, 140, -840, -140, -198, -120, -102
33115, -943, 315, -264, -210, 1400, 0, -198, -123, -96
33116, -890, 323, -231, 140, -1260, -280, -195, -133, -112
33117, -896, 323, -237, 280, -1610, -280, -192, -129, -94
33118, -936, 312, -251, -210, 2030, 210, -192, -121, -102
33119, -898, 325, -243, 210, -1820, -280, -195, -127, -99
33120, -932, 312, -247, -280, 2100, 210, -196, -118, -96
33121, -903, 325, -247, 280, -1820, -280, -186, -118, -96
33122, -909, 324, -252, 210, -1820, -280, -186, -124, -99
33123, -923, 312, -239, -280, 2100, 140, -180, -132, -112
33124, -913, 324, -256, 210, -1680, -350, -195, -123, -121
33125, -917, 312, -234, -210, 1890, 70, -192, -129, -96
33126, -919, 322, -258, -70, 1680, 70, -187, -130, -108
33127, -923, 322, -261, 210, -1050, -210, -195, -127, -105
33128, -908, 315, -232, -140, 1330, 70, -186, -132, -106
33129, -926, 322, -262, 70, -840, -140, -201, -129, -103
33130, -906, 316, -230, -70, 980, 0, -189, -127, -93
33131, -904, 317, -231, 0, 560, 0, -196, -127, -100
33132, -931, 318, -260, 140, -70, -70, -186, -129, -103
33133, -902, 319, -233, -70, 210, -70, -190, -117, -96
33134, -933, 317, -259, -70, 210, -70, -193, -120, -108
33135, -902, 319, -234, 70, -140, -70, -187, -127, -105
33136, -901, 321, -237, 70, -420, -70, -189, -127, -105
33137, -932, 316, -255, -70, 910, 0, -189, -118, -105
33138, -903, 321, -240, 140, -700, -210, -189, -126, -96
33139, -930, 314, -252, -70, 1050, 0, -196, -118, -96
33140, -905, 314, -249, -210, 1190, 70, -193, -124, -105
33141, -907, 322, -245, 140, -910, -140, -186, -132, -99
33142, -925, 315, -245, -70, 1190, 0, -189, -130, -102
33143, -910, 322, -246, 140, -910, -210, -189, -120, -91
33144, -923, 314, -244, -140, 1260, 70, -192, -123, -106
33145, -919, 314, -241, -70, 1190, 70, -196, -129, -93
33146, -915, 321, -252, 140, -770, -210, -198, -124, -109
33147, -917, 315, -240, -140, 1050, 0, -187, -115, -100
33148, -919, 320, -253, 210, -700, -140, -186, -126, -94
33149, -915, 316, -239, -70, 980, 0, -196, -127, -99
33150, -912, 317, -238, -140, 770, 0, -195, -130, -109
33151, -923, 319, -254, 70, -350, -140, -196, -123, -100
33152, -911, 317, -238, -70, 630, -70, -196, -133, -100
33153, -924, 319, -254, 140, -140, -70, -192, -117, -97
33154, -924, 318, -253, 0, 70, -70, -195, -126, -106
33155, -909, 319, -239, 0, 210, -140, -186, -132, -102
33156, -925, 317, -252, 0, 280, -70, -184, -126, -102
33157, -909, 319, -239, 0, 0, -70, -195, -123, -103
33158, -926, 316, -251, -70, 420, -70, -193, -130, -105
33159, -925, 316, -249, 0, 560, -70, -189, -129, -108
33160, -909, 320, -243, 70, -280, -140, -187, -123, -94
33161, -924, 316, -249, -70, 700, 0, -186, -130, -96
33162, -910, 321, -244, 70, -350, -140, -196, -123, -100
33163, -923, 316, -247, 0, 700, 0, -193, -120, -97
33164, -922, 315, -244, -70, 770, 0, -183, -123, -99
33165, -914, 320, -247, 70, -420, -70, -189, -130, -102
33166, -919, 315, -244, -140, 700, 0, -186, -120, -99
33167, -915, 320, -248, 0, -420, -140, -187, -126, -103
33168, -917, 320, -249, 140, -350, -140, -190, -114, -105
33169, -917, 317, -243, -70, 630, -70, -192, -121, -96
33170, -918, 319, -249, 70, -280, -140, -186, -117, -111
33171, -915, 317, -243, -70, 560, 0, -190, -129, -105
33172, -919, 318, -250, 70, -210, -70, -189, -121, -99
33173, -921, 319, -250, 0, -140, -140, -195, -129, -103
33174, -913, 318, -242, -70, 350, -70, -189, -129, -100
33175, -921, 318, -250, 0, 0, -70, -187, -126, -99
33176, -914, 319, -243, -70, 280, -70, -187, -124, -106
33177, -923, 317, -250, 0, 140, -70, -199, -126, -106
33178, -922, 317, -250, -70, 280, -70, -187, -123, -108
33179, -912, 319, -244, 0, 70, -70, -193, -127, -106
33180, -921, 317, -248, -70, 280, -70, -190, -117, -99
33181, -912, 319, -243, 70, 0, -140, -193, -126, -102
33182, -914, 320, -245, 0, -70, -70, -195, -120, -100
33183, -921, 317, -248, -70, 420, -70, -198, -126, -96
33184, -915, 319, -246, 70, -140, -70, -193, -118, -91
33185, -920, 317, -247, 0, 420, -70, -190, -120, -97
33186, -915, 319, -246, 0, -210, -140, -193, -123, -93
33187, -915, 319, -246, 70, -140, -140, -198, -127, -105
33188, -918, 317, -245, -70, 490, 0, -192, -124, -106
33189, -916, 319, -248, 0, -140, -70, -192, -124, -102
33190, -918, 317, -244, 0, 350, 0, -186, -120, -105
33191, -917, 318, -246, 0, -140, -140, -190, -124, -103
33192, -918, 318, -249, 70, -70, -140, -192, -124, -102
33193, -916, 317, -244, -70, 350, -70, -189, -124, -94
33194, -919, 318, -249, 70, 0, -70, -193, -123, -97
33195, -915, 318, -245, 0, 350, -70, -192, -124, -103
33196, -915, 318, -245, 0, 280, -70, -193, -120, -91
33197, -919, 318, -248, -70, 140, -70, -187, -127, -106
33198, -915, 318, -244, -70, 210, -70, -187, -126, -103
33199, -920, 317, -249, 0, 140, -70, -187, -121, -102
33200, -915, 318, -245, 0, 140, -70, -192, -127, -100
33201, -914, 319, -245, 70, 70, -70, -193, -121, -99
33202, -919, 317, -247, 0, 210, -70, -189, -124, -102
33203, -915, 319, -245, 70, 70, -70, -201, -115, -96
33204, -920, 317, -247, 0, 280, -70, -189, -126, -102
33205, -916, 318, -245, 0, 350, -70, -198, -115, -94
33206, -915, 319, -246, 0, 0, -140, -190, -130, -103
33207, -919, 318, -247, 0, 210, -70, -189, -121, -94
33208, -915, 318, -247, 0, 0, -70, -198, -124, -103
33209, -918, 317, -246, 0, 280, -70, -184, -129, -91
33210, -918, 317, -246, 0, 350, -70, -187, -129, -100
33211, -917, 318, -246, 70, 0, -140, -190, -123, -99
33212, -918, 317, -245, 0, 350, -70, -184, -132, -103
33213, -917, 319, -247, 0, 70, -70, -189, -118, -90
33214, -916, 318, -245, 0, 350, -70, -192, -130, -103
33215, -916, 318, -245, -70, 210, -70, -195, -127, -100
33216, -918, 318, -246, 70, 70, -70, -186, -133, -106
33217, -916, 319, -245, -70, 210, -70, -196, -127, -102
33218, -917, 318, -246, 0, 70, -70, -192, -129, -102
33219, -915, 318, -244, 0, 70, -70, -195, -120, -102
33220, -916, 318, -245, 0, 140, -70, -186, -120, -96
33221, -918, 318, -247, 0, 210, -140, -181, -127, -97
33222, -916, 318, -245, 70, 210, -70, -187, -124, -97
33223, -918, 318, -247, -70, 210, -70, -187, -126, -105
33224, -918, 317, -246, 0, 140, -70, -192, -121, -103
33225, -916, 318, -245, -70, 140, -70, -183, -121, -96
33226, -918, 318, -248, 0, 210, -70, -192, -126, -99
33227, -916, 318, -246, 0, 140, -70, -192, -118, -100
33228, -918, 318, -247, 0, 280, -140, -199, -133, -99
33229, -917, 318, -246, -70, 210, -70, -189, -124, -102
33230, -916, 318, -247, 0, 70, -140, -186, -115, -100
33231, -917, 317, -246, 0, 280, -70, -196, -129, -102
33232, -916, 319, -245, 0, 140, -70, -198, -117, -100
33233, -918, 318, -245, 70, 70, -70, -186, -127, -102
33234, -917, 317, -246, 70, 280, -70, -192, -117, -93
33235, -917, 318, -247, 70, 70, -70, -196, -118, -93
33236, -917, 318, -245, 0, 210, -70, -189, -123, -99
33237, -916, 318, -246, 0, 70, -70, -186, -120, -100
33238, -917, 318, -247, 0, 70, -70, -189, -120, -99
33239, -917, 318, -246, 0, 210, -140, -201, -118, -103
33240, -917, 318, -245, 0, 140, -70, -192, -121, -102
33241, -917, 318, -245, 0, 210, -70, -190, -124, -102
33242, -917, 318, -247, -70, 70, -70, -184, -130, -108
33243, -918, 318, -248, 70, 140, -70, -196, -121, -108
33244, -916, 318, -247, 70, 210, -70, -180, -130, -97
33245, -918, 318, -247, 0, 140, -70, -193, -117, -99
33246, -917, 318, -245, 0, 140, -70, -195, -127, -108
33247, -916, 318, -246, 0, 140, -70, -198, -114, -96
33248, -918, 317, -246, 0, 140, -70, -183, -127, -105
33249, -916, 318, -246, 0, 210, -70, -192, -124, -105
33250, -918, 317, -246, 0, 210, -70, -198, -121, -108
33251, -918, 318, -246, 70, 140, -70, -186, -118, -100
33252, -916, 319, -247, 70, 70, -140, -193, -123, -106
33253, -917, 318, -246, -70, 140, -70, -189, -129, -105
33254, -916, 318, -245, 0, 140, -70, -198, -121, -103
33255, -917, 318, -246, 0, 280, -70, -201, -124, -103
33256, -917, 318, -247, 70, 70, -70, -195, -126, -102
33257, -916, 319, -246, 0, 140, -70, -196, -111, -97
33258, -918, 318, -246, 0, 210, -70, -198, -129, -103
33259, -917, 317, -246, 0, 70, -140, -193, -124, -102
33260, -917, 318, -245, -70, 140, -70, -193, -129, -100
33261, -917, 318, -246, -70, 210, -70, -189, -123, -111
33262, -917, 318, -246, 0, 70, -70, -195, -121, -100
33263, -917, 318, -245, -70, 210, -70, -192, -124, -102
33264, -916, 318, -246, 70, 140, -70, -193, -121, -100
33265, -916, 318, -245, 0, 210, -70, -192, -127, -103
33266, -916, 317, -246, -70, 210, -70, -193, -120, -105
33267, -917, 318, -247, 0, 140, -70, -201, -127, -108
33268, -916, 318, -246, 70, 210, -70, -189, -118, -108
33269, -917, 318, -246, 0, 210, -70, -189, -123, -111
33270, -917, 319, -247, 0, 70, -70, -187, -121, -109
33271, -917, 318, -247, 0, 70, -70, -190, -126, -100
33272, -917, 318, -247, 0, 210, -70, -190, -126, -109
33273, -917, 318, -247, 0, 140, -70, -190, -118, -108
33274, -918, 318, -246, 0, 210, -70, -189, -114, -106
33275, -918, 318, -246, -70, 140, 0, -192, -126, -108
33276, -917, 319, -246, -70, 210, -70, -198, -124, -105
33277, -917, 318, -246, 0, 210, -70, -187, -124, -106
33278, -917, 319, -245, 0, 140, -70, -199, -124, -94
33279, -917, 319, -246, 0, 210, -70, -186, -132, -97
33280, -917, 318, -246, 0, 210, -70, -189, -124, -112
33281, -917, 318, -246, 0, 140, -70, -202, -123, -102
33282, -917, 318, -247, 0, 140, -70, -202, -120, -102
33283, -916, 318, -246, 0, 140, -70, -196, -123, -112
33284, -917, 318, -247, 0, 140, -70, -190, -121, -100
33285, -917, 318, -245, 0, 210, -140, -190, -133, -100
33286, -917, 318, -246, 0, 140, -70, -201, -126, -105
33287, -917, 318, -246, -70, 210, -70, -196, -118, -109
33288, -917, 318, -246, 0, 140, -70, -184, -118, -106
33289, -917, 318, -246, 0, 210, -70, -190, -135, -118
33290, -917, 319, -246, 0, 140, -70, -187, -123, -106
33291, -917, 318, -246, -70, 140, -70, -195, -127, -103
33292, -917, 318, -246, -70, 140, -70, -198, -118, -106
33293, -917, 318, -246, 0, 140, -70, -193, -121, -111
33294, -917, 318, -245, 0, 140, -70, -198, -121, -105
33295, -916, 318, -247, 0, 140, -70, -192, -130, -105
33296, -916, 318, -246, 0, 140, -70, -189, -121, -93
33297, -916, 318, -245, 0, 140, -70, -193, -124, -108
33298, -917, 318, -246, 70, 140, -70, -196, -109, -100
33299, -917, 318, -246, -70, 140, -70, -186, -130, -112
33300, -918, 317, -245, 0, 140, -70, -201, -123, -100
33301, -917, 318, -247, 0, 140, -70, -193, -126, -105
33302, -917, 317, -246, 0, 210, -70, -195, -124, -94
33303, -917, 319, -246, 0, 70, -70, -199, -126, -102
33304, -917, 318, -246, 0, 140, -70, -196, -133, -112
33305, -916, 318, -246, 0, 210, -70, -192, -115, -96
33306, -917, 318, -245, 0, 140, 0, -190, -127, -103
33307, -917, 318, -246, 0, 210, -70, -190, -126, -103
33308, -916, 318, -245, 0, 210, -70, -189, -120, -109
33309, -916, 318, -247, 0, 210, -70, -189, -130, -102
33310, -917, 317, -246, 0, 140, -70, -193, -127, -114
33311, -917, 318, -246, 0, 140, -70, -199, -130, -99
33312, -917, 318, -246, -70, 210, -70, -180, -126, -109
33313, -917, 318, -246, 0, 140, -70, -192, -118, -96
33314, -916, 318, -246, 0, 210, -70, -196, -133, -103
33315, -917, 318, -246, 0, 210, -70, -183, -120, -112
33316, -916, 318, -246, 70, 140, -70, -190, -129, -102
33317, -917, 318, -246, -70, 210, -70, -196, -126, -97
33318, -916, 318, -246, 0, 210, -140, -196, -124, -103
33319, -917, 318, -246, 0, 210, -70, -198, -120, -100
33320, -917, 318, -246, 70, 140, -70, -186, -123, -108
33321, -916, 318, -246, 0, 210, -70, -198, -130, -100
33322, -917, 318, -246, 0, 210, 0, -193, -127, -106
33323, -917, 318, -247, 0, 140, -70, -199, -124, -99
33324, -917, 318, -246, 0, 210, -70, -198, -123, -100
33325, -917, 318, -246, 0, 210, -70, -196, -118, -102
33326, -917, 319, -245, -70, 140, -70, -190, -129, -108
33327, -917, 318, -244, 0, 140, -70, -192, -123, -108
33328, -917, 318, -246, 0, 210, -70, -189, -120, -100
33329, -917, 319, -246, 70, 140, -70, -195, -121, -97
33330, -916, 318, -246, 0, 210, -70, -189, -127, -91
33331, -917, 318, -246, 0, 210, -70, -187, -123, -99
33332, -917, 318, -246, 0, 280, -70, -198, -121, -99
33333, -916, 318, -246, -70, 140, -70, -186, -115, -94
33334, -917, 318, -246, 0, 140, -70, -187, -124, -100
33335, -917, 318, -247, 70, 210, -70, -199, -126, -99
33336, -917, 318, -245, 0, 210, -70, -190, -121, -97
33337, -917, 317, -246, 0, 210, -70, -193, -123, -99
33338, -917, 318, -246, 0, 140, -70, -189, -124, -90
33339, -917, 318, -246, 70, 140, -70, -195, -127, -103
33340, -917, 318, -246, 70, 140, -70, -189, -126, -103
33341, -917, 318, -245, 0, 210, -140, -192, -115, -103
33342, -917, 317, -246, 70, 210, -70, -190, -127, -99
33343, -917, 318, -246, -70, 140, -140, -190, -121, -100
33344, -917, 318, -245, 0, 140, -70, -204, -123, -108
33345, -917, 318, -247, -70, 140, -70, -192, -129, -121
33346, -917, 318, -246, 0, 140, -70, -193, -130, -111
33347, -917, 318, -246, 70, 140, -70, -186, -120, -109
33348, -917, 318, -246, 70, 140, -70, -181, -121, -94
33349, -917, 319, -246, 70, 140, -70, -196, -123, -90
33350, -917, 318, -245, 70, 140, -140, -195, -123, -96
33351, -917, 318, -246, 0, 140, -70, -187, -124, -90
33352, -917, 318, -245, 0, 140, -70, -189, -120, -111
33353, -917, 318, -246, 0, 210, -70, -189, -120, -94
33354, -917, 318, -246, -70, 140, -70, -187, -127, -96
33355, -917, 317, -247, 0, 210, -140, -196, -121, -99
33356, -918, 318, -245, 0, 140, -70, -190, -117, -100
33357, -916, 318, -246, 0, 140, -70, -189, -127, -100
33358, -917, 319, -246, 0, 140, -70, -195, -126, -94
33359, -917, 318, -245, 70, 70, 0, -192, -130, -108
33360, -916, 318, -246, 0, 210, -70, -192, -123, -100
33361, -917, 318, -246, -70, 140, -140, -202, -117, -85
33362, -917, 318, -246, 0, 140, -70, -190, -121, -100
33363, -917, 318, -246, 0, 210, -140, -187, -127, -108
33364, -916, 318, -246, 70, 140, -70, -184, -130, -102
33365, -917, 318, -245, 140, 210, -70, -199, -129, -99
33366, -917, 318, -246, 0, 140, -70, -189, -130, -103
33367, -917, 318, -246, 0, 140, -70, -187, -130, -99
33368, -917, 318, -245, -70, 140, 0, -195, -117, -99
33369, -917, 318, -246, 0, 140, -70, -187, -121, -102
33370, -917, 318, -246, 0, 210, -70, -187, -120, -102
33371, -917, 318, -246, 0, 140, -70, -192, -118, -99
33372, -917, 318, -246, 0, 140, -70, -184, -120, -112
33373, -918, 319, -246, 70, 210, -140, -199, -126, -93
33374, -918, 318, -246, 0, 140, -70, -189, -127, -106
33375, -917, 319, -244, 0, 70, -70, -190, -121, -96
33376, -918, 318, -245, 0, 210, -70, -198, -124, -99
33377, -917, 318, -246, 70, 140, -70, -186, -126, -91
33378, -917, 318, -245, 70, 140, -70, -201, -114, -105
33379, -916, 318, -246, -70, 140, -70, -190, -124, -106
33380, -917, 318, -247, 0, 140, -70, -204, -121, -106
33381, -917, 318, -246, 0, 140, -70, -186, -111, -94
33382, -917, 318, -246, 70, 140, -70, -189, -123, -105
33383, -917, 318, -245, 0, 210, -70, -192, -123, -99
33384, -917, 319, -246, -70, 70, -70, -190, -121, -103
33385, -916, 320, -248, 0, 140, -140, -187, -129, -94
33386, -918, 318, -246, -70, 140, -70, -198, -121, -96
33387, -915, 318, -243, 70, 210, -70, -186, -114, -97
33388, -917, 319, -248, 0, 140, -70, -193, -133, -96
33389, -916, 317, -246, 0, 140, -70, -189, -127, -103
33390, -917, 317, -245, 0, 210, -70, -192, -126, -97
33391, -920, 319, -248, 0, 210, 0, -189, -123, -100
33392, -914, 317, -245, 0, 210, -70, -195, -123, -91
33393, -917, 318, -244, 70, 350, -70, -190, -123, -100
33394, -916, 317, -247, 140, 210, -70, -196, -126, -100
33395, -915, 318, -245, 70, 280, -70, -189, -129, -99
33396, -919, 319, -248, 0, 210, -70, -198, -121, -105
33397, -918, 319, -247, -70, 140, -140, -190, -127, -96
33398, -917, 318, -248, 0, 70, -140, -189, -123, -103
33399, -909, 314, -240, 70, 70, -140, -201, -130, -105
33400, -910, 313, -241, 140, 560, -140, -189, -127, -106
33401, -925, 320, -251, 280, 980, 0, -186, -123, -100
33402, -926, 325, -256, 140, 560, 0, -190, -124, -99
33403, -917, 323, -249, 70, -140, -70, -184, -123, -94
33404, -919, 319, -247, -140, 140, -70, -192, -126, -103
33405, -916, 315, -244, -70, -280, -70, -189, -126, -100
33406, -919, 317, -248, 70, 420, 0, -192, -121, -94
33407, -917, 319, -246, 0, 140, -70, -196, -127, -108
33408, -920, 322, -253, 0, 140, -70, -195, -120, -99
33409, -919, 321, -247, -70, -210, -140, -190, -118, -100
33410, -908, 315, -240, -70, -280, -140, -186, -120, -102
33411, -917, 316, -243, 0, 420, 0, -192, -121, -93
33412, -917, 315, -244, 0, 0, -70, -190, -130, -97
33413, -917, 321, -251, 0, 420, -70, -187, -127, -103
33414, -918, 322, -247, -70, 70, -70, -184, -123, -100
33415, -915, 316, -242, 0, -70, -140, -195, -115, -96
33416, -915, 320, -246, -70, 70, -140, -192, -123, -103
33417, -915, 318, -244, -70, 140, -70, -196, -130, -100
33418, -922, 314, -248, 0, 280, -70, -190, -112, -94
33419, -919, 318, -247, 0, 70, -70, -198, -123, -99
33420, -918, 320, -247, -70, 490, 0, -195, -129, -94
33421, -920, 317, -246, -70, -70, -70, -192, -123, -96
33422, -918, 316, -248, 0, 0, -140, -189, -130, -100
33423, -914, 317, -243, -70, 70, -70, -193, -123, -100
33424, -916, 318, -246, 0, 210, -70, -192, -136, -105
33425, -920, 318, -248, 0, 210, -70, -184, -120, -97
33426, -919, 318, -246, 0, 70, -70, -190, -127, -100
33427, -915, 318, -245, 0, 70, -140, -193, -123, -100
33428, -916, 318, -245, 0, 280, -70, -189, -129, -102
33429, -918, 319, -248, 0, 140, -140, -199, -126, -96
33430, -917, 319, -247, 0, 140, -70, -187, -121, -105
33431, -916, 318, -244, 70, 70, -140, -189, -121, -99
33432, -915, 316, -244, 70, 280, -70, -186, -126, -103
33433, -915, 317, -244, 70, 350, 0, -193, -123, -105
33434, -920, 317, -246, 70, 490, -70, -192, -124, -106
33435, -920, 322, -250, 70, 70, -70, -192, -124, -103
33436, -917, 323, -248, -70, 210, -70, -190, -126, -99
33437, -920, 320, -248, -140, -140, -140, -195, -132, -97
33438, -912, 314, -241, -140, -140, -140, -186, -120, -96
33439, -912, 315, -242, 0, 140, -70, -187, -126, -102
33440, -916, 319, -246, 0, 350, -140, -187, -123, -100
33441, -921, 319, -251, 0, 280, -70, -190, -124, -96
33442, -922, 320, -248, -70, 0, -70, -190, -117, -94
33443, -915, 318, -245, -140, -280, -70, -190, -127, -102
33444, -914, 314, -241, -140, -210, -140, -193, -124, -105
33445, -916, 313, -244, 0, 140, -70, -198, -121, -106
33446, -916, 317, -245, 70, 280, -70, -181, -127, -105
33447, -917, 320, -247, 0, 210, -70, -189, -121, -102
33448, -918, 318, -247, 0, 0, -70, -196, -117, -105
33449, -917, 316, -246, 0, 140, 0, -189, -127, -99
33450, -912, 315, -240, 70, 140, -70, -187, -126, -96
33451, -917, 317, -246, 70, 350, -70, -187, -124, -97
33452, -919, 319, -247, 0, 490, 0, -189, -130, -96
33453, -918, 319, -249, 0, 140, -70, -193, -130, -102
33454, -917, 319, -248, 0, 280, -70, -190, -118, -108
33455, -916, 318, -244, -70, 140, -70, -184, -120, -102
33456, -917, 317, -244, 0, 140, -70, -190, -121, -105
33457, -917, 318, -247, 210, 420, -70, -193, -133, -96
33458, -916, 319, -244, 70, 490, -70, -195, -114, -109
33459, -919, 319, -248, 0, 210, -70, -199, -124, -108
33460, -917, 318, -246, 0, 280, -70, -187, -117, -103
33461, -917, 318, -245, 70, 210, -70, -190, -112, -100
33462, -916, 317, -245, 70, 420, -70, -184, -120, -109
33463, -918, 317, -245, 140, 560, -70, -196, -127, -99
33464, -918, 320, -248, 70, 350, -70, -184, -117, -108
33465, -920, 320, -248, 0, 350, -70, -195, -130, -102
33466, -916, 319, -246, 0, 70, -70, -195, -126, -97
33467, -913, 316, -244, 0, 210, -70, -187, -126, -90
33468, -913, 314, -241, 70, 420, -70, -190, -124, -100
33469, -913, 315, -244, 210, 630, -70, -198, -121, -99
33470, -918, 319, -247, 210, 840, -70, -190, -120, -105
33471, -923, 321, -251, 0, 350, -70, -189, -120, -96
33472, -919, 321, -251, -70, -140, -140, -190, -126, -97
33473, -918, 319, -248, -140, -70, -70, -187, -124, -102
33474, -910, 314, -241, 70, -350, -140, -183, -117, -108
33475, -915, 315, -243, 280, 280, -140, -196, -126, -99
33476, -911, 315, -242, 280, 1120, 0, -190, -118, -106
33477, -915, 315, -245, 350, 1260, -70, -187, -121, -100
33478, -917, 318, -248, 420, 1260, -70, -186, -121, -93
33479, -920, 321, -253, 350, 1190, 0, -190, -120, -99
33480, -917, 321, -247, 140, 210, -140, -193, -126, -102
33481, -920, 320, -249, 0, 630, -140, -196, -135, -96
33482, -917, 318, -248, 0, -140, -210, -196, -129, -105
33483, -912, 316, -244, 0, 420, -140, -189, -126, -103
33484, -913, 318, -244, 70, 280, -210, -186, -114, -97
33485, -917, 316, -247, 210, 1050, -140, -195, -124, -97
33486, -914, 317, -245, 280, 630, -210, -184, -124, -108
33487, -918, 318, -249, 210, 1120, -140, -189, -121, -88
33488, -914, 318, -244, 280, 840, -140, -186, -124, -106
33489, -921, 318, -246, 280, 770, -140, -193, -130, -102
33490, -925, 320, -254, 140, 980, -70, -186, -121, -97
33491, -918, 320, -249, 140, 420, -210, -180, -135, -97
33492, -919, 319, -252, 70, 420, -140, -190, -120, -102
33493, -912, 318, -245, 0, 560, -140, -195, -127, -96
33494, -914, 315, -246, 70, 910, -70, -201, -127, -100
33495, -913, 316, -247, 210, 840, -140, -195, -124, -96
33496, -914, 316, -249, 280, 980, -70, -196, -123, -100
33497, -912, 315, -246, 280, 1260, -70, -189, -120, -93
33498, -913, 314, -246, 490, 1470, -70, -195, -112, -100
33499, -915, 315, -249, 560, 1890, -70, -184, -129, -97
33500, -916, 317, -249, 560, 1960, 0, -195, -123, -97
33501, -915, 319, -250, 630, 1890, -70, -189, -126, -106
33502, -914, 317, -249, 560, 2030, -70, -193, -130, -94
33503, -918, 316, -252, 630, 2100, -70, -190, -127, -91
33504, -917, 318, -252, 630, 2030, -70, -193, -120, -99
33505, -913, 317, -251, 560, 1960, -70, -193, -127, -91
33506, -916, 316, -251, 630, 2100, 0, -196, -120, -93
33507, -915, 316, -250, 630, 2100, -70, -198, -132, -106
33508, -915, 318, -251, 560, 2240, -70, -199, -117, -96
33509, -916, 316, -253, 700, 2030, 0, -195, -117, -99
33510, -912, 316, -250, 700, 2310, 0, -187, -130, -93
33511, -914, 315, -252, 770, 2380, 0, -195, -118, -96
33512, -913, 315, -251, 840, 2590, 0, -199, -123, -97
33513, -922, 320, -258, 770, 2450, 70, -187, -129, -94
33514, -922, 324, -260, 630, 1960, 0, -187, -121, -99
33515, -924, 326, -262, 350, 1470, 0, -201, -130, -97
33516, -920, 325, -259, 210, 840, -140, -193, -121, -96
33517, -914, 316, -253, 70, 420, -140, -193, -120, -93
33518, -911, 313, -251, 140, 630, -140, -187, -121, -103
33519, -911, 313, -252, 140, 980, -70, -199, -129, -100
33520, -911, 316, -253, 350, 1190, -70, -198, -133, -102
33521, -912, 315, -254, 350, 1470, -70, -187, -133, -100
33522, -913, 314, -255, 490, 1750, -70, -189, -115, -105
33523, -915, 316, -257, 490, 1680, -70, -190, -124, -100
33524, -913, 318, -256, 420, 1610, -70, -195, -130, -96
33525, -911, 318, -257, 490, 1610, -70, -202, -123, -97
33526, -910, 316, -255, 560, 1890, -70, -190, -126, -93
33527, -909, 314, -254, 630, 2170, -70, -192, -121, -93
33528, -910, 313, -256, 770, 2380, -70, -193, -129, -97
33529, -912, 312, -255, 840, 2730, -70, -190, -123, -91
33530, -916, 315, -257, 770, 2940, 0, -196, -129, -97
33531, -920, 320, -262, 770, 2520, 0, -190, -118, -91
33532, -917, 321, -262, 700, 2100, 0, -190, -136, -96
33533, -916, 319, -261, 560, 2100, 70, -198, -127, -91
33534, -919, 319, -262, 560, 1820, 0, -195, -129, -99
33535, -917, 319, -262, 420, 1400, 0, -198, -132, -102
33536, -915, 318, -261, 350, 1330, 0, -198, -130, -91
33537, -916, 317, -261, 280, 1120, 0, -199, -133, -91
33538, -916, 319, -263, 280, 980, 0, -183, -124, -94
33539, -913, 320, -263, 210, 770, 0, -193, -126, -88
33540, -914, 318, -260, 210, 770, 0, -189, -129, -93
33541, -916, 315, -259, 210, 980, 0, -178, -115, -91
33542, -913, 320, -262, 140, 420, -70, -198, -126, -93
33543, -914, 319, -264, 140, 700, 0, -190, -121, -93
33544, -911, 315, -258, 140, 490, -70, -195, -127, -102
33545, -910, 317, -261, 140, 210, -70, -190, -118, -91
33546, -910, 317, -261, 140, 630, -70, -193, -121, -94
33547, -908, 314, -257, 210, 700, -70, -198, -138, -100
33548, -916, 314, -261, 280, 1190, 0, -193, -123, -90
33549, -907, 315, -259, 350, 770, -70, -196, -118, -97
33550, -912, 317, -261, 350, 1260, 0, -190, -123, -100
33551, -915, 318, -264, 350, 1190, 0, -195, -126, -84
33552, -911, 317, -260, 350, 1190, 0, -195, -130, -97
33553, -913, 315, -264, 350, 1260, 0, -190, -124, -87
33554, -910, 313, -257, 490, 1400, 0, -198, -132, -99
33555, -910, 318, -261, 420, 1820, 0, -187, -123, -93
33556, -912, 316, -264, 560, 1330, -70, -196, -124, -105
33557, -913, 315, -263, 490, 1750, 0, -199, -123, -94
33558, -912, 316, -264, 490, 1470, 0, -189, -121, -91
33559, -913, 317, -264, 560, 1400, 0, -201, -118, -82
33560, -912, 316, -264, 560, 1610, 0, -193, -123, -94
33561, -912, 316, -264, 490, 1540, 0, -186, -120, -85
33562, -913, 316, -264, 560, 1820, 0, -195, -130, -93
33563, -912, 317, -265, 560, 1400, 0, -193, -114, -100
33564, -911, 318, -264, 420, 1260, 0, -186, -123, -102
33565, -912, 315, -265, 420, 1470, 0, -195, -115, -105
33566, -910, 315, -264, 420, 1330, 0, -189, -121, -96
33567, -908, 314, -264, 560, 1610, 0, -195, -126, -82
33568, -906, 313, -261, 840, 2240, 0, -196, -118, -91
33569, -907, 310, -262, 910, 2590, 70, -181, -127, -90
33570, -904, 308, -262, 1120, 2940, 70, -198, -117, -88
33571, -902, 307, -259, 1260, 3710, 140, -195, -115, -90
33572, -906, 305, -262, 1610, 4270, 210, -189, -127, -93
33573, -907, 308, -264, 1890, 5250, 280, -192, -120, -79
33574, -906, 311, -265, 2100, 5740, 350, -186, -127, -97
33575, -907, 313, -267, 2240, 5950, 350, -193, -129, -96
33576, -910, 315, -271, 2310, 6300, 350, -187, -129, -93
33577, -910, 316, -274, 2380, 6090, 350, -187, -123, -87
33578, -902, 313, -273, 2450, 6440, 350, -193, -121, -90
33579, -899, 308, -270, 2660, 7070, 350, -189, -133, -90
33580, -901, 303, -270, 2800, 7770, 490, -195, -123, -88
33581, -902, 303, -269, 3080, 8330, 490, -189, -123, -81
33582, -908, 307, -275, 3430, 8820, 630, -190, -123, -90
33583, -903, 310, -277, 3640, 9590, 630, -195, -123, -90
33584, -902, 309, -277, 3850, 9800, 630, -201, -118, -81
33585, -911, 314, -284, 3850, 10290, 700, -187, -133, -84
33586, -911, 319, -289, 3850, 9660, 630, -183, -129, -79
33587, -902, 320, -293, 3640, 9310, 630, -196, -123, -82
33588, -910, 320, -295, 3500, 9450, 630, -193, -127, -82
33589, -912, 323, -297, 3360, 8680, 560, -205, -123, -79
33590, -914, 326, -300, 3080, 8470, 560, -199, -117, -85
33591, -915, 331, -301, 2870, 7560, 560, -192, -126, -85
33592, -909, 333, -306, 1960, 5180, 350, -198, -118, -84
33593, -905, 328, -306, 1680, 4620, 210, -201, -126, -84
33594, -896, 320, -296, 1610, 4340, 140, -196, -126, -79
33595, -905, 313, -300, 1470, 4760, 210, -190, -130, -76
33596, -903, 311, -291, 1610, 4270, 210, -195, -124, -81
33597, -905, 317, -299, 1470, 4410, 210, -190, -130, -78
33598, -905, 318, -300, 1470, 3850, 210, -193, -120, -76
33599, -908, 320, -304, 1400, 3780, 210, -199, -123, -70
33600, -904, 322, -304, 1190, 3150, 140, -196, -123, -82
33601, -907, 327, -309, 840, 2240, 140, -196, -124, -82
33602, -910, 325, -312, 490, 1610, 70, -195, -120, -78
33603, -906, 324, -307, 280, 980, 0, -195, -129, -85
33604, -906, 321, -308, 0, 420, -70, -204, -126, -78
33605, -902, 319, -301, -70, 280, 0, -195, -126, -70
33606, -899, 315, -301, -140, 70, -140, -198, -132, -78
33607, -896, 313, -297, 70, 0, -70, -198, -123, -72
33608, -894, 310, -297, 140, 630, -70, -198, -124, -78
33609, -896, 312, -296, 210, 1120, 0, -192, -121, -75
33610, -896, 311, -303, 420, 1610, 70, -192, -127, -76
33611, -907, 318, -305, 490, 1330, 0, -189, -118, -67
33612, -909, 321, -308, 280, 1120, 70, -196, -130, -69
33613, -910, 324, -310, 70, 350, -70, -192, -121, -70
33614, -905, 324, -308, -70, 0, 0, -199, -124, -81
33615, -906, 318, -306, -420, -560, 0, -202, -117, -69
33616, -903, 315, -307, -490, -1050, -70, -190, -120, -73
33617, -893, 311, -297, -350, -840, -70, -190, -126, -73
33618, -905, 314, -301, -280, -350, 0, -193, -123, -75
33619, -902, 317, -298, -350, -490, 0, -193, -118, -78
33620, -915, 328, -313, -770, -1610, 0, -198, -126, -76
33621, -921, 328, -318, -1120, -2870, -140, -199, -115, -79
33622, -911, 326, -309, -1540, -3990, -140, -192, -111, -78
33623, -907, 324, -307, -1820, -4690, -210, -196, -123, -72
33624, -902, 315, -297, -1890, -5040, -210, -192, -132, -79
33625, -899, 312, -296, -1890, -4830, -210, -205, -117, -70
33626, -895, 312, -295, -1750, -4760, -210, -196, -130, -75
33627, -896, 310, -291, -1540, -3920, -140, -187, -127, -75
33628, -898, 309, -288, -1400, -3570, -140, -199, -129, -73
33629, -905, 324, -297, -1330, -3780, -70, -199, -121, -75
33630, -911, 325, -304, -1540, -4130, -70, -199, -129, -79
33631, -901, 319, -297, -1750, -4620, -140, -196, -124, -72
33632, -902, 316, -293, -1750, -4480, -210, -190, -126, -81
33633, -897, 314, -287, -1750, -4550, -210, -190, -118, -82
33634, -905, 315, -290, -1610, -4270, -210, -192, -126, -84
33635, -910, 319, -295, -1680, -4410, -210, -199, -127, -82
33636, -911, 320, -294, -1680, -4760, -210, -192, -126, -81
33637, -912, 320, -294, -1890, -5390, -280, -193, -123, -72
33638, -886, 319, -281, -2030, -5180, -350, -195, -129, -91
33639, -877, 303, -271, -1610, -4830, -350, -201, -126, -82
33640, -885, 291, -267, -1190, -2240, -210, -199, -121, -85
33641, -894, 292, -269, -560, -1750, -140, -202, -129, -82
33642, -900, 301, -280, -280, -210, -70, -190, -126, -75
33643, -908, 319, -288, 140, 770, 0, -199, -126, -82
33644, -911, 324, -290, 0, 210, 0, -195, -135, -84
33645, -915, 324, -296, -140, -280, 0, -192, -132, -84
33646, -906, 320, -286, -280, -630, -70, -192, -123, -87
33647, -904, 317, -285, -280, -840, -140, -196, -130, -87
33648, -902, 311, -282, -210, -350, -140, -192, -124, -82
33649, -905, 313, -283, -70, 280, 0, -195, -132, -78
33650, -905, 317, -285, -70, 0, -70, -201, -126, -82
33651, -907, 320, -287, -70, 140, -70, -195, -123, -84
33652, -909, 318, -287, -140, -140, -140, -195, -123, -90
33653, -906, 316, -285, -210, -350, -70, -195, -121, -87
33654, -903, 316, -284, -140, -210, -140, -202, -120, -93
33655, -903, 315, -282, -70, -70, -70, -199, -124, -88
33656, -905, 315, -284, -70, 70, -70, -189, -124, -75
33657, -906, 317, -285, 0, 0, -70, -192, -123, -81
33658, -906, 318, -285, -70, -70, -70, -196, -127, -81
33659, -906, 318, -286, -70, -70, -140, -190, -121, -78
33660, -906, 317, -284, -70, -140, -70, -186, -129, -90
33661, -906, 316, -284, -70, -140, -70, -193, -127, -87
33662, -905, 317, -284, 0, 70, -140, -192, -114, -85
33663, -906, 317, -284, -70, 0, -70, -198, -129, -90
33664, -906, 318, -284, -70, 70, -70, -190, -120, -81
33665, -906, 317, -285, -70, -70, -70, -198, -123, -79
33666, -906, 316, -284, -70, 0, -70, -195, -127, -87
33667, -905, 316, -284, -70, 0, -70, -199, -127, -90
33668, -906, 316, -285, -70, 70, -70, -192, -126, -87
33669, -906, 317, -285, 0, 0, -70, -187, -121, -79
33670, -906, 317, -285, -140, 0, -70, -192, -117, -78
33671, -907, 317, -285, -70, 0, -70, -192, -120, -88
33672, -906, 317, -284, 0, 0, -70, -189, -130, -97
33673, -906, 317, -285, -70, 0, -70, -192, -126, -85
33674, -906, 318, -283, 0, 0, -70, -202, -127, -85
33675, -906, 318, -284, 0, 70, -70, -196, -126, -85
33676, -906, 317, -283, 0, 0, -70, -196, -123, -87
33677, -905, 317, -284, -70, 140, -70, -189, -124, -82
33678, -906, 317, -285, -70, 70, -70, -193, -130, -84
33679, -906, 317, -284, 0, 70, -70, -207, -133, -84
33680, -905, 317, -284, 0, 70, -70, -190, -123, -85
33681, -905, 316, -284, 0, 70, -70, -193, -120, -79
33682, -905, 317, -284, -70, 70, -70, -199, -115, -91
33683, -905, 317, -285, -70, 70, -70, -190, -133, -90
33684, -906, 316, -285, 0, 70, -70, -190, -118, -88
33685, -905, 316, -284, 0, 70, -70, -189, -129, -84
33686, -905, 317, -284, -70, 70, -70, -190, -118, -76
33687, -906, 317, -284, 0, 70, -70, -193, -121, -81
33688, -906, 317, -284, 0, 70, -70, -204, -129, -90
33689, -906, 317, -284, -70, 70, -140, -187, -120, -84
33690, -906, 317, -283, -70, 70, -70, -195, -123, -79
33691, -907, 317, -285, -70, 0, -140, -190, -121, -81
33692, -906, 317, -284, -70, 70, -70, -189, -120, -93
33693, -907, 317, -283, 0, 70, -70, -201, -121, -76
33694, -906, 316, -284, -70, 140, -70, -192, -121, -81
33695, -906, 317, -284, 0, 70, -140, -199, -121, -82
33696, -906, 317, -284, 0, 70, -70, -192, -120, -93
33697, -906, 317, -283, 0, 140, -140, -189, -124, -93
33698, -907, 317, -283, 0, 70, -70, -187, -123, -79
33699, -906, 317, -284, -70, 70, -70, -190, -121, -79
33700, -906, 317, -284, -70, 140, -70, -195, -117, -85
33701, -905, 317, -283, -70, 140, -70, -195, -126, -93
33702, -906, 317, -284, -70, 140, -70, -193, -133, -87
33703, -906, 317, -283, -70, 140, -70, -198, -127, -87
33704, -906, 317, -283, 0, 140, -140, -198, -120, -90
33705, -906, 317, -284, 0, 70, -70, -190, -121, -88
33706, -906, 317, -283, -70, 0, -140, -193, -127, -85
33707, -906, 317, -283, 0, 70, -70, -190, -127, -88
33708, -905, 317, -284, -70, 140, -70, -193, -121, -84
33709, -906, 317, -284, 70, 140, -70, -180, -126, -82
33710, -906, 317, -283, 0, 140, -70, -201, -126, -84
33711, -905, 316, -284, 0, 140, -70, -196, -130, -85
33712, -906, 316, -284, -70, 140, -70, -189, -118, -85
33713, -906, 317, -284, -70, 140, -70, -193, -118, -84
33714, -906, 317, -283, 0, 70, -70, -189, -123, -88
33715, -906, 317, -284, -70, 140, -70, -201, -123, -79
33716, -906, 317, -284, 0, 70, -70, -199, -133, -88
33717, -906, 317, -284, -70, 210, -70, -189, -117, -88
33718, -919, 312, -284, -280, 630, -70, -198, -135, -90
33719, -898, 343, -294, -140, -2520, -350, -189, -126, -82
33720, -910, 302, -293, -490, 630, -70, -190, -130, -82
33721, -878, 303, -245, 70, -210, -70, -190, -126, -90
33722, -864, 314, -258, 350, -980, -140, -192, -127, -93
33723, -938, 309, -305, -140, 2590, 140, -195, -126, -91
33724, -891, 330, -261, 140, -1050, -210, -187, -132, -88
33725, -927, 318, -319, -70, 140, -70, -195, -123, -87
33726, -882, 315, -256, -140, 770, -70, -202, -118, -91
33727, -890, 317, -270, -210, 1050, 0, -193, -130, -84
33728, -903, 312, -289, 140, -1050, -280, -195, -124, -85
33729, -919, 319, -284, -140, 1890, 140, -208, -120, -85
33730, -895, 320, -277, 210, -1400, -210, -190, -117, -88
33731, -915, 316, -269, 0, -140, -70, -202, -124, -76
33732, -918, 315, -298, -70, -420, -140, -198, -120, -82
33733, -893, 315, -271, -140, 490, -70, -190, -123, -84
33734, -908, 316, -288, 70, -350, -210, -186, -126, -85
33735, -908, 315, -279, 0, 980, 0, -193, -124, -82
33736, -911, 321, -292, 0, 560, -70, -193, -124, -97
33737, -908, 320, -280, -70, 0, -70, -192, -127, -79
33738, -908, 320, -289, -140, -420, -140, -193, -132, -94
33739, -904, 314, -281, -210, 140, -70, -195, -120, -93
33740, -893, 303, -276, 70, -420, -140, -184, -124, -94
33741, -865, 281, -255, 1120, 2240, 0, -193, -114, -81
33742, -875, 285, -258, 1960, 5950, 420, -195, -124, -82
33743, -890, 300, -268, 2800, 8330, 630, -192, -117, -78
33744, -865, 276, -274, 3640, 8120, 560, -190, -129, -81
33745, -989, 337, -355, 4270, 11620, 840, -192, -124, -73
33746, -927, 400, -280, 3220, 10430, 770, -187, -130, -78
33747, -990, 410, -406, 1750, 2030, 70, -192, -124, -79
33748, -934, 388, -315, -980, 2170, 210, -190, -114, -79
33749, -994, 362, -371, -1820, -8260, -700, -199, -118, -82
33750, -892, 328, -289, -3080, -13440, -980, -189, -126, -78
33751, -892, 321, -275, -3850, -5950, -210, -196, -114, -75
33752, -884, 303, -266, -2730, -10640, -700, -192, -120, -93
33753, -938, 296, -293, -3080, -4550, 70, -193, -124, -85
33754, -920, 313, -280, -2520, -9100, -140, -193, -127, -88
33755, -853, 294, -252, -2240, -8400, 280, -193, -129, -105
33756, -887, 286, -267, -1960, -3640, 840, -186, -123, -88
33757, -909, 293, -253, -1330, -2100, 1190, -190, -121, -84
33758, -952, 300, -287, -1050, -1120, 1820, -196, -124, -82
33759, -1004, 298, -315, -840, -770, 4200, -198, -120, -82
33760, -985, 311, -319, -1120, -1120, 5530, -186, -115, -87
33761, -953, 336, -311, -1610, 630, 6860, -195, -118, -87
33762, -954, 347, -322, -2100, 840, 7910, -187, -124, -91
33763, -958, 347, -315, -2940, 1960, 8960, -195, -126, -102
33764, -974, 328, -307, -3920, 1470, 10430, -199, -124, -87
33765, -935, 326, -286, -3850, -1820, 10640, -196, -120, -87
33766, -931, 328, -294, -4270, -280, 11130, -189, -118, -87
33767, -881, 325, -268, -4060, -2520, 10990, -187, -123, -82
33768, -887, 331, -276, -4270, -70, 10990, -201, -118, -84
33769, -897, 338, -272, -4060, 420, 10570, -190, -111, -84
33770, -901, 339, -271, -3920, -1820, 10080, -192, -118, -93
33771, -912, 344, -283, -4130, -1680, 10010, -190, -117, -85
33772, -903, 347, -281, -4200, -3850, 9730, -193, -117, -85
33773, -900, 347, -281, -4620, -4480, 9730, -189, -117, -94
33774, -916, 347, -287, -4900, -3290, 10150, -189, -108, -82
33775, -917, 345, -276, -4970, -3710, 10430, -189, -112, -81
33776, -941, 342, -289, -5110, -3500, 10990, -199, -114, -93
33777, -935, 341, -280, -5180, -3990, 11480, -190, -102, -79
33778, -939, 346, -284, -5390, -3920, 12740, -195, -115, -78
33779, -939, 353, -287, -5670, -3850, 13300, -195, -115, -84
33780, -938, 358, -290, -5810, -3850, 13930, -189, -103, -84
33781, -935, 359, -284, -6090, -3780, 14630, -186, -106, -73
33782, -936, 361, -288, -6300, -3990, 15330, -199, -102, -84
33783, -930, 363, -280, -6580, -3640, 16590, -189, -111, -72
33784, -933, 363, -278, -6860, -3220, 17220, -187, -100, -81
33785, -932, 366, -277, -7070, -3780, 17710, -186, -102, -70
33786, -938, 368, -281, -7280, -3780, 18340, -184, -94, -73
33787, -939, 379, -285, -7770, -5110, 19390, -198, -93, -76
33788, -940, 386, -281, -8260, -4690, 20160, -190, -102, -84
33789, -938, 388, -283, -8470, -6790, 20580, -181, -94, -73
33790, -936, 391, -279, -9030, -6090, 21350, -193, -96, -81
33791, -943, 393, -279, -9380, -7840, 21910, -180, -90, -70
33792, -953, 394, -278, -10290, -9800, 23310, -192, -88, -81
33793, -952, 395, -274, -10640, -9870, 24080, -189, -93, -82
33794, -957, 397, -282, -10920, -11270, 24850, -184, -85, -81
33795, -940, 400, -269, -11270, -11410, 25620, -195, -90, -85
33796, -953, 404, -276, -11620, -12250, 27230, -186, -76, -72
33797, -961, 416, -275, -12320, -13440, 28000, -189, -91, -84
33798, -953, 421, -266, -12810, -14560, 28770, -186, -82, -82
33799, -963, 428, -271, -13230, -15890, 29610, -190, -81, -88
33800, -969, 438, -269, -13860, -17640, 30240, -187, -70, -78
33801, -930, 440, -255, -14980, -20650, 31430, -180, -78, -91
33802, -928, 439, -249, -15260, -22330, 31990, -186, -64, -81
33803, -935, 444, -240, -15610, -22120, 32620, -189, -70, -81
33804, -940, 454, -243, -15890, -24640, 33040, -190, -64, -81
33805, -934, 463, -232, -16380, -25550, 33600, -187, -58, -90
33806, -948, 475, -231, -17570, -29960, 34930, -187, -61, -73
33807, -945, 482, -230, -18060, -32270, 35630, -181, -63, -96
33808, -945, 485, -230, -18830, -33880, 36400, -190, -64, -96
33809, -940, 488, -218, -19320, -35070, 37310, -189, -57, -87
33810, -953, 488, -221, -20230, -36960, 39270, -189, -48, -99
33811, -969, 486, -209, -20580, -38990, 40110, -184, -42, -90
33812, -957, 487, -186, -21000, -40040, 41020, -186, -42, -96
33813, -974, 491, -194, -21210, -42000, 41930, -181, -30, -91
33814, -961, 500, -175, -21490, -43190, 42980, -175, -36, -100
33815, -952, 518, -162, -21770, -44030, 44940, -187, -36, -114
33816, -945, 522, -159, -21700, -44030, 45850, -181, -28, -112
33817, -953, 528, -153, -21840, -42070, 46900, -183, -19, -106
33818, -941, 529, -148, -21700, -43330, 47670, -192, -22, -115
33819, -930, 528, -145, -21840, -41650, 48720, -183, -18, -118
33820, -932, 540, -145, -21560, -40600, 50820, -180, -18, -120
33821, -924, 553, -145, -21140, -39900, 51800, -183, -7, -121
33822, -909, 564, -143, -20790, -36470, 52990, -178, -6, -126
33823, -881, 564, -134, -20020, -32830, 54180, -181, -1, -123
33824, -897, 555, -135, -18970, -23170, 57190, -181, 3, -124
33825, -878, 570, -125, -18550, -18690, 58730, -189, 4, -121
33826, -878, 582, -118, -18060, -13790, 60130, -180, 4, -118
33827, -870, 583, -106, -17710, -10360, 61390, -198, 16, -127
33828, -857, 592, -97, -17500, -6930, 62510, -181, 25, -123
33829, -829, 605, -86, -17430, -2030, 64750, -184, 22, -124
33830, -823, 602, -80, -17430, -560, 65730, -184, 24, -123
33831, -826, 604, -80, -17710, 1540, 66640, -186, 31, -114
33832, -809, 612, -78, -17780, 1750, 67130, -183, 46, -115
33833, -804, 625, -83, -18130, 3500, 67830, -189, 33, -115
33834, -761, 633, -70, -18550, 4620, 68600, -205, 46, -114
33835, -732, 627, -48, -18620, 5390, 68670, -199, 49, -118
33836, -718, 626, -16, -18690, 6160, 68390, -192, 55, -114
33837, -711, 615, 35, -18480, 4270, 67480, -199, 60, -97
33838, -707, 609, 100, -16170, -9030, 65100, -202, 58, -108
33839, -758, 759, 38, -16380, -12670, 64820, -205, 69, -105
33840, -745, 640, 10, -15330, -35210, 62370, -199, 63, -100
33841, -728, 510, -3, -16450, -33950, 61530, -202, 70, -120
33842, -519, 539, 12, -14350, -39830, 59150, -210, 81, -112
33843, -452, 801, -28, -13160, -10990, 58520, -202, 84, -123
33844, -486, 772, 10, -14630, 2240, 59290, -213, 91, -111
33845, -460, 716, 62, -13930, -7070, 58240, -202, 91, -114
33846, -518, 742, 77, -14980, 350, 58380, -207, 105, -114
33847, -624, 772, 37, -14140, -10570, 56000, -208, 105, -111
33848, -665, 646, 19, -14000, -26950, 50960, -210, 102, -111
33849, -571, 648, 27, -14140, -24920, 49420, -217, 106, -109
33850, -466, 703, 34, -13230, -27860, 47740, -216, 108, -111
33851, -431, 747, 39, -13300, -21840, 47320, -220, 115, -118
33852, -435, 791, 58, -13090, -20160, 45850, -211, 121, -115
33853, -519, 820, 43, -12880, -22120, 44730, -217, 126, -120
33854, -552, 821, 47, -12950, -21210, 44030, -217, 127, -123
33855, -593, 787, 31, -12740, -23800, 43330, -214, 130, -127
33856, -581, 756, 43, -12600, -23590, 43050, -231, 121, -120
33857, -521, 757, 48, -11340, -20090, 42350, -223, 141, -124
33858, -502, 768, 48, -10500, -18060, 42280, -225, 138, -130
33859, -466, 784, 68, -9870, -14490, 42420, -220, 135, -124
33860, -480, 808, 62, -9240, -11270, 42700, -216, 142, -120
33861, -485, 833, 69, -8750, -8330, 42840, -231, 145, -117
33862, -497, 837, 67, -8190, -4760, 42840, -231, 145, -120
33863, -510, 837, 60, -8190, -3290, 42840, -234, 156, -136
33864, -516, 843, 63, -8260, -2940, 42910, -234, 145, -124
33865, -533, 841, 58, -8470, -2940, 42980, -231, 154, -120
33866, -563, 837, 60, -8820, -3080, 43820, -240, 156, -130
33867, -562, 847, 60, -8960, -4130, 44240, -237, 156, -121
33868, -557, 855, 59, -9170, -4410, 44520, -226, 160, -115
33869, -544, 855, 59, -9240, -5110, 44730, -241, 174, -121
33870, -517, 851, 62, -9310, -5040, 44800, -244, 162, -121
33871, -473, 854, 70, -9450, -4760, 45360, -250, 171, -130
33872, -463, 857, 71, -9520, -4620, 45640, -241, 174, -115
33873, -467, 859, 72, -9590, -3780, 45780, -253, 184, -112
33874, -481, 859, 67, -9590, -3920, 45850, -252, 190, -118
33875, -473, 865, 73, -9730, -4060, 46060, -249, 187, -109
33876, -465, 875, 78, -9590, -2870, 46970, -246, 190, -121
33877, -472, 879, 75, -9450, -1890, 47530, -253, 192, -114
33878, -463, 885, 77, -9310, -420, 48160, -264, 190, -117
33879, -445, 887, 77, -9100, 1470, 48720, -258, 192, -115
33880, -402, 876, 83, -8890, 6580, 49910, -253, 201, -121
33881, -397, 880, 86, -8680, 8820, 50400, -261, 196, -108
33882, -399, 887, 86, -8610, 10570, 50750, -267, 205, -112
33883, -393, 890, 88, -8680, 10920, 50820, -268, 207, -106
33884, -373, 885, 97, -8680, 10990, 50750, -265, 213, -111
33885, -362, 890, 99, -8890, 10220, 50260, -258, 214, -103
33886, -358, 898, 96, -9100, 8890, 49840, -274, 223, -108
33887, -346, 902, 99, -9520, 7560, 49350, -271, 219, -106
33888, -334, 904, 95, -9870, 5460, 48790, -274, 231, -112
33889, -303, 905, 107, -10080, 4480, 48300, -279, 217, -100
33890, -294, 908, 106, -10430, 3710, 47180, -279, 228, -103
33891, -294, 907, 101, -10640, 2730, 46550, -279, 222, -105
33892, -282, 905, 108, -10710, 1680, 46060, -285, 228, -103
33893, -282, 905, 105, -10710, 700, 45570, -294, 228, -105
33894, -285, 920, 102, -10920, -1750, 44380, -282, 231, -103
33895, -267, 924, 103, -11060, -2660, 43750, -279, 240, -102
33896, -238, 919, 110, -10990, -3430, 43190, -286, 237, -105
33897, -219, 915, 112, -10850, -2660, 42770, -285, 237, -99
33898, -211, 917, 117, -10640, -1890, 42350, -298, 250, -102
33899, -223, 926, 117, -10220, -210, 41580, -301, 250, -100
33900, -234, 933, 115, -10290, -490, 41160, -298, 250, -97
33901, -240, 942, 117, -10360, -910, 40950, -295, 253, -100
33902, -243, 949, 117, -10360, -1680, 40670, -298, 256, -97
33903, -240, 948, 120, -10500, -2030, 40390, -298, 259, -97
33904, -211, 947, 125, -10500, -2870, 39760, -303, 261, -94
33905, -188, 948, 127, -10570, -3010, 39410, -304, 252, -106
33906, -172, 943, 132, -10570, -2870, 38990, -303, 265, -99
33907, -161, 937, 136, -10500, -2730, 38430, -309, 259, -93
33908, -132, 933, 144, -10080, -2450, 37170, -312, 276, -100
33909, -115, 933, 149, -9800, -2170, 36540, -312, 267, -102
33910, -107, 935, 151, -9520, -1610, 35770, -304, 271, -99
33911, -100, 937, 154, -9170, -980, 34930, -321, 280, -96
33912, -93, 940, 156, -8820, -420, 34090, -319, 279, -102
33913, -82, 942, 160, -8260, 700, 32340, -325, 280, -100
33914, -90, 947, 160, -8120, 910, 31570, -328, 279, -94
33915, -105, 954, 159, -8050, 700, 30800, -324, 279, -94
