Time [mS], AccX [mg],AccY [mg],AccZ [mg],GyroX [mdps],GyroY [mdps],GyroZ [mdps],MagX [mgauss],MagY [mgauss],MagZ [mgauss]
18356, -134, 964, 192, 1820, -2520, 1330, -657, 349, -162
18357, -137, 970, 192, 2870, -4970, 1400, -672, 348, -162
18358, -134, 978, 205, 3220, -7000, 70, -657, 351, -162
18359, -129, 978, 213, 2380, -5810, -490, -661, 346, -160
18360, -130, 976, 209, 1190, -4550, -630, -678, 360, -162
18361, -122, 970, 206, 770, -4060, -350, -666, 358, -159
18362, -122, 970, 203, 770, -3640, 0, -661, 355, -159
18363, -132, 971, 201, 1540, -3990, 420, -672, 349, -163
18364, -128, 969, 200, 2240, -4130, -70, -670, 358, -154
18365, -125, 970, 203, 3010, -4200, -210, -667, 354, -154
18366, -120, 975, 213, 3080, -2590, 0, -666, 355, -160
18367, -121, 975, 206, 350, -70, 490, -667, 355, -159
18368, -121, 971, 205, 70, 560, 630, -664, 346, -163
18369, -122, 970, 204, -70, 910, 910, -670, 352, -151
18370, -124, 969, 205, 0, 1120, 1120, -675, 358, -157
18371, -127, 972, 204, 0, 1120, 1330, -663, 355, -150
18372, -123, 969, 204, 210, 700, 1960, -666, 348, -156
18373, -125, 969, 202, 490, 350, 2310, -670, 360, -153
18374, -127, 972, 203, 840, 70, 2240, -658, 354, -163
18375, -130, 973, 202, 980, -560, 1750, -666, 358, -151
18376, -127, 974, 204, 1050, -490, 1470, -672, 345, -162
18377, -122, 974, 206, 70, 1610, 1540, -664, 345, -159
18378, -118, 972, 208, -280, 3080, 1610, -670, 357, -154
18379, -112, 969, 210, -630, 5110, 2240, -666, 358, -156
18380, -110, 961, 210, -1120, 7070, 4060, -664, 343, -166
18381, -119, 973, 205, -1680, 6230, 10850, -669, 363, -157
18382, -117, 968, 198, -2310, 5810, 11760, -672, 346, -156
18383, -125, 975, 187, -1820, 2100, 11620, -669, 348, -165
18384, -138, 989, 194, -910, -1190, 9310, -678, 354, -157
18385, -130, 984, 202, 70, -2590, 3710, -678, 352, -148
18386, -119, 972, 203, 700, -3920, 840, -673, 345, -157
18387, -114, 971, 202, 840, -4550, 910, -666, 358, -156
18388, -107, 971, 204, 1050, -4550, 1190, -675, 343, -159
18389, -105, 971, 206, 980, -4130, 1400, -676, 351, -153
18390, -99, 974, 212, 630, -2730, 1890, -666, 357, -165
18391, -109, 974, 203, 0, -980, 1680, -670, 357, -162
18392, -111, 973, 203, 140, -1120, 1680, -672, 351, -156
18393, -108, 971, 203, 70, -1120, 1960, -664, 343, -147
18394, -105, 970, 201, 0, -1610, 2520, -682, 351, -166
18395, -99, 971, 203, 70, -2730, 4900, -672, 355, -151
18396, -98, 968, 198, 490, -3010, 5600, -675, 351, -154
18397, -100, 967, 195, 1120, -3920, 7000, -681, 348, -162
18398, -98, 966, 194, 2520, -4900, 8190, -675, 349, -159
18399, -97, 969, 199, 3920, -5180, 9170, -678, 345, -153
18400, -100, 981, 203, 4060, -4830, 8680, -672, 352, -156
18401, -93, 976, 202, 3920, -3990, 6580, -681, 357, -147
18402, -89, 972, 201, 4550, -3640, 6930, -673, 340, -157
18403, -94, 981, 209, 3850, -2520, 6230, -679, 354, -151
18404, -90, 981, 207, 2520, -910, 4620, -675, 352, -157
18405, -82, 975, 205, 980, 1750, 2870, -681, 349, -157
18406, -79, 973, 206, 420, 2940, 3360, -672, 348, -150
18407, -76, 973, 208, -140, 4550, 4200, -684, 348, -157
18408, -56, 966, 221, -1260, 3640, 5250, -679, 352, -163
18409, -121, 1013, 215, -3710, 5740, 16030, -678, 351, -153
18410, -156, 989, 160, -4480, 5670, 6930, -676, 352, -166
18411, -65, 994, 266, -3850, 5740, -2240, -673, 349, -156
18412, -112, 967, 164, -1890, 2310, -1330, -681, 349, -160
18413, -94, 979, 200, -1470, 1260, -2030, -672, 348, -154
18414, -89, 981, 201, -910, 140, -2310, -675, 340, -162
18415, -92, 977, 198, -1470, 1750, -3640, -681, 351, -153
18416, -87, 970, 196, -700, 280, -2590, -679, 355, -160
18417, -95, 969, 190, -420, 630, -1260, -675, 339, -168
18418, -90, 973, 194, -210, 210, -770, -673, 339, -156
18419, -89, 974, 194, -70, 70, -560, -679, 352, -162
18420, -93, 975, 194, -70, 140, -490, -675, 343, -169
18421, -96, 975, 194, -70, 140, -490, -675, 349, -157
18422, -98, 975, 194, 0, -70, -490, -672, 348, -160
18423, -97, 975, 198, -70, -630, -490, -676, 355, -160
18424, -95, 975, 200, -70, -980, -490, -673, 355, -159
18425, -96, 975, 202, -70, -1050, -420, -679, 354, -153
18426, -95, 975, 205, -70, -1190, -490, -672, 349, -163
18427, -95, 973, 205, 0, -1120, -420, -678, 357, -154
18428, -90, 973, 208, 0, -1120, -350, -673, 357, -156
18429, -91, 974, 210, -70, -1050, -350, -675, 346, -153
18430, -94, 973, 209, 0, -1050, -350, -667, 349, -160
18431, -91, 974, 211, 70, -1120, -420, -675, 351, -156
18432, -89, 974, 209, 0, -1190, -420, -672, 345, -159
18433, -84, 973, 208, 70, -1190, -560, -682, 348, -159
18434, -86, 974, 208, 70, -1120, -560, -676, 348, -160
18435, -87, 975, 206, 0, -1120, -630, -673, 348, -168
18436, -86, 974, 205, 70, -980, -630, -675, 349, -163
18437, -84, 974, 206, 70, -1050, -840, -675, 349, -162
18438, -84, 973, 204, 70, -1050, -910, -675, 352, -154
18439, -92, 973, 195, 210, -1260, -910, -673, 342, -153
18440, -86, 973, 200, 560, -2800, -1120, -670, 355, -165
18441, -84, 975, 203, 630, -2870, -1260, -672, 351, -153
18442, -83, 975, 202, 420, -2450, -1470, -678, 352, -160
18443, -85, 977, 198, 630, -3010, -1680, -672, 345, -165
18444, -35, 984, 250, 840, -1330, -1400, -678, 349, -159
18445, -118, 971, 160, 490, -2730, -1820, -685, 346, -150
18446, -112, 971, 174, 700, -3780, -1960, -676, 354, -162
18447, -74, 975, 212, 140, -560, -1120, -669, 345, -151
18448, -85, 974, 194, -560, 2800, -490, -673, 361, -159
18449, -92, 976, 183, 0, 1260, -420, -676, 351, -159
18450, -95, 979, 188, 770, -910, -840, -676, 358, -157
18451, -99, 980, 198, 770, -1610, -1400, -678, 342, -157
18452, -93, 979, 200, 350, -490, -1400, -672, 349, -157
18453, -85, 977, 202, -140, 1050, -1330, -679, 357, -162
18454, -78, 974, 200, -420, 2590, -980, -679, 349, -159
18455, -79, 974, 201, -420, 3430, -770, -678, 348, -150
18456, -88, 973, 198, -700, 5740, -280, -673, 348, -165
18457, -89, 974, 203, -560, 6300, -70, -681, 351, -159
18458, -98, 973, 195, -560, 6300, -70, -684, 346, -165
18459, -95, 974, 200, -350, 5250, 0, -669, 349, -160
18460, -97, 974, 198, -140, 4340, 910, -681, 358, -162
18461, -102, 974, 193, 0, 3290, 1260, -676, 354, -156
18462, -86, 973, 209, -140, 3710, 1610, -667, 357, -162
18463, -100, 974, 194, -1050, 5530, 2730, -667, 354, -159
18464, -96, 977, 204, -1050, 4550, 2660, -673, 355, -157
18465, -101, 976, 199, -1470, 5740, 1470, -681, 349, -156
18466, -107, 976, 191, -1050, 3920, 700, -672, 355, -169
18467, -108, 973, 184, -490, 2590, 70, -673, 348, -162
18468, -97, 973, 199, 70, 1050, -280, -685, 346, -157
18469, -108, 972, 181, 840, -1120, -630, -676, 351, -159
18470, -96, 973, 203, 2520, -6580, -210, -678, 355, -151
18471, -98, 980, 211, 2450, -5530, 140, -681, 354, -160
18472, -95, 980, 212, 1750, -3570, -560, -679, 357, -169
18473, -103, 975, 201, 1190, -1610, -910, -681, 349, -160
18474, -88, 976, 215, 0, 1540, -700, -670, 354, -160
18475, -94, 975, 203, -140, 2660, -700, -681, 349, -153
18476, -96, 974, 201, -140, 2590, -770, -673, 345, -165
18477, -98, 973, 199, 140, 2030, -840, -676, 357, -156
18478, -97, 974, 202, 210, 1680, -840, -672, 355, -166
18479, -93, 969, 201, 210, 980, -910, -679, 348, -165
18480, -102, 976, 203, 770, 0, -910, -679, 343, -157
18481, -96, 975, 207, 210, 1960, -630, -670, 351, -154
18482, -101, 974, 200, 140, 2310, -630, -669, 345, -165
18483, -101, 973, 198, 210, 1960, -630, -670, 357, -159
18484, -103, 978, 206, 280, 420, -700, -675, 354, -157
18485, -106, 975, 200, 350, 980, -560, -679, 360, -162
18486, -116, 973, 190, 420, 350, -490, -676, 354, -160
18487, -99, 976, 213, 140, 630, -420, -676, 361, -160
18488, -107, 976, 205, -280, 1610, -210, -682, 339, -157
18489, -102, 975, 204, -490, 2380, 0, -679, 351, -159
18490, -105, 974, 200, -490, 2450, 140, -670, 360, -154
18491, -104, 972, 201, -350, 2030, 140, -685, 345, -154
18492, -104, 974, 202, -350, 1890, 280, -672, 351, -153
18493, -103, 976, 201, 0, 770, 140, -679, 358, -156
18494, -102, 975, 204, 0, 630, 210, -670, 346, -159
18495, -104, 974, 201, 70, 210, 140, -673, 351, -163
18496, -103, 975, 202, 280, -280, 140, -684, 346, -157
18497, -101, 975, 204, 70, -140, 210, -673, 355, -159
18498, -100, 975, 202, -140, 210, 420, -678, 352, -165
18499, -103, 975, 201, -210, 770, 560, -673, 349, -159
18500, -102, 975, 199, -280, 770, 560, -678, 349, -163
18501, -102, 974, 199, -280, 770, 630, -678, 343, -151
18502, -99, 974, 201, -280, 770, 700, -672, 349, -160
18503, -97, 975, 201, -210, 840, 700, -678, 352, -154
18504, -97, 977, 202, -280, 910, 700, -676, 355, -162
18505, -95, 976, 203, -420, 1330, 700, -672, 337, -156
18506, -96, 975, 200, -490, 1610, 700, -678, 351, -165
18507, -94, 972, 201, -280, 1120, 560, -678, 351, -165
18508, -92, 975, 202, -420, 1330, 630, -673, 357, -157
18509, -95, 976, 198, -490, 1470, 560, -681, 351, -160
18510, -96, 974, 199, -350, 910, 560, -679, 348, -165
18511, -97, 973, 197, -350, 490, 560, -681, 346, -154
18512, -96, 973, 199, 140, -980, 420, -675, 357, -163
18513, -93, 974, 202, 140, -1190, 280, -676, 346, -160
18514, -90, 974, 203, 210, -1120, 280, -676, 345, -157
18515, -89, 975, 204, 140, -770, 210, -678, 343, -151
18516, -86, 974, 206, -70, -210, 210, -672, 351, -174
18517, -86, 975, 205, -210, 140, 140, -676, 343, -159
18518, -87, 975, 204, -210, 420, 0, -672, 345, -153
18519, -87, 974, 203, -280, 280, -210, -679, 349, -156
18520, -89, 972, 202, -280, 210, -350, -684, 354, -163
18521, -92, 973, 198, -140, -560, -630, -682, 348, -163
18522, -91, 973, 199, 210, -1470, -700, -669, 345, -163
18523, -91, 972, 203, 210, -1610, -630, -679, 352, -163
18524, -91, 972, 201, 210, -1610, -630, -672, 349, -166
18525, -92, 973, 201, 280, -1540, -630, -673, 343, -151
18526, -88, 975, 205, 0, -490, -560, -672, 349, -169
18527, -90, 975, 203, -210, 210, -560, -684, 354, -159
18528, -91, 976, 201, -280, 70, -630, -669, 349, -162
18529, -92, 975, 200, -140, -70, -770, -679, 354, -160
18530, -96, 974, 197, 70, -980, -980, -672, 343, -159
18531, -94, 975, 198, 210, -1820, -1120, -681, 357, -162
18532, -95, 974, 198, 280, -1960, -1050, -670, 357, -168
18533, -94, 975, 200, 210, -1820, -1050, -681, 355, -159
18534, -94, 975, 199, 210, -1330, -1050, -673, 348, -165
18535, -91, 977, 200, -70, 210, -840, -667, 355, -169
18536, -89, 976, 204, -420, 1610, -630, -676, 351, -166
18537, -94, 976, 200, -770, 3290, -490, -675, 349, -156
18538, -99, 975, 194, -770, 3290, -630, -675, 352, -157
18539, -101, 975, 193, -560, 1330, -630, -682, 349, -162
18540, -98, 976, 196, 0, 490, -700, -678, 354, -168
18541, -97, 976, 199, 0, 280, -700, -675, 348, -156
18542, -93, 975, 201, -70, 490, -630, -679, 360, -154
18543, -96, 974, 199, -210, 1120, -560, -679, 348, -162
18544, -99, 975, 198, 0, 1050, -700, -673, 345, -166
18545, -99, 976, 197, -70, 840, -770, -676, 351, -159
18546, -99, 975, 198, 0, 560, -770, -673, 352, -166
18547, -97, 975, 202, 0, 630, -700, -669, 346, -166
18548, -98, 975, 200, -140, 1260, -630, -672, 354, -160
18549, -100, 974, 199, -70, 770, -630, -670, 349, -162
18550, -96, 973, 201, -70, 910, -630, -682, 352, -166
18551, -98, 974, 201, -70, 1190, -630, -672, 352, -159
18552, -99, 974, 199, 0, 1120, -630, -672, 352, -159
18553, -99, 973, 201, 0, 840, -630, -669, 351, -157
18554, -99, 975, 202, 140, 420, -700, -672, 360, -163
18555, -96, 974, 205, 70, 420, -700, -669, 346, -154
18556, -95, 973, 205, -70, 1260, -630, -666, 349, -156
18557, -98, 974, 201, -140, 1400, -630, -676, 355, -159
18558, -97, 974, 203, -210, 1750, -630, -678, 348, -166
18559, -98, 973, 203, -280, 2100, -630, -666, 342, -165
18560, -102, 973, 198, -280, 1680, -630, -679, 352, -162
18561, -103, 973, 198, -70, 770, -700, -676, 345, -156
18562, -101, 974, 201, 70, 420, -770, -676, 349, -148
18563, -103, 974, 198, 70, 350, -770, -672, 346, -163
18564, -101, 974, 200, 140, -70, -840, -670, 346, -154
18565, -100, 973, 201, 70, 140, -840, -676, 343, -163
18566, -101, 973, 199, 210, 0, -840, -667, 360, -169
18567, -101, 974, 199, 280, -490, -910, -673, 355, -168
18568, -102, 974, 201, 280, -770, -980, -676, 352, -169
18569, -103, 973, 200, 350, -910, -980, -667, 352, -151
18570, -101, 974, 201, 350, -1120, -980, -678, 352, -157
18571, -97, 975, 206, 210, -560, -840, -667, 346, -154
18572, -102, 975, 200, -140, 1190, -770, -672, 355, -160
18573, -103, 974, 199, -70, 770, -770, -670, 339, -166
18574, -104, 974, 200, 70, 490, -770, -672, 357, -154
18575, -104, 972, 199, 0, 280, -770, -676, 352, -165
18576, -104, 973, 199, 140, -70, -770, -676, 351, -156
18577, -102, 974, 204, 210, -420, -770, -673, 348, -166
18578, -103, 974, 203, 140, 0, -700, -663, 348, -162
18579, -106, 974, 200, 70, -70, -770, -682, 349, -160
18580, -105, 975, 202, 140, -210, -770, -666, 346, -157
18581, -105, 974, 202, 0, 210, -700, -684, 351, -148
18582, -105, 974, 202, -70, 630, -630, -666, 346, -166
18583, -104, 974, 202, -210, 910, -560, -673, 357, -163
18584, -107, 974, 199, -70, 700, -560, -664, 352, -160
18585, -106, 974, 201, 0, 490, -420, -672, 357, -153
18586, -108, 974, 199, -490, 2100, -210, -670, 351, -163
18587, -109, 973, 197, -280, 1750, -140, -678, 340, -153
18588, -108, 973, 198, -210, 1260, -210, -676, 361, -163
18589, -110, 973, 196, 0, 770, -140, -670, 351, -165
18590, -108, 974, 198, 210, -140, -280, -666, 348, -163
18591, -108, 974, 199, 420, -980, -280, -670, 349, -162
18592, -107, 973, 197, 630, -1820, -420, -673, 346, -151
18593, -107, 974, 198, 840, -2940, -490, -672, 358, -163
18594, -107, 974, 197, 980, -3850, -560, -676, 340, -159
18595, -105, 975, 200, 1330, -5320, -490, -675, 358, -154
18596, -97, 976, 202, 1190, -4900, -350, -664, 345, -159
18597, -98, 976, 202, 840, -4340, -350, -679, 355, -147
18598, -99, 976, 201, 630, -3920, -420, -678, 354, -154
18599, -96, 976, 203, 350, -3570, -420, -669, 348, -156
18600, -92, 976, 204, -350, -420, -140, -672, 360, -160
18601, -92, 976, 200, -350, -70, -280, -681, 357, -159
18602, -92, 976, 199, -420, 280, -420, -675, 348, -159
18603, -90, 978, 203, -490, 2310, -140, -672, 357, -154
18604, -92, 977, 203, -980, 4900, 140, -669, 349, -166
18605, -84, 946, 165, -3570, 7490, -5670, -679, 357, -153
18606, -96, 981, 201, -2520, 9240, -2240, -670, 358, -163
18607, -104, 963, 170, -770, 4200, -910, -669, 351, -156
18608, -102, 975, 181, -490, 5040, 0, -673, 348, -165
18609, -95, 977, 189, -70, 5950, 350, -664, 354, -165
18610, -101, 977, 184, 70, 6650, 490, -666, 348, -159
18611, -101, 977, 184, 140, 7420, 700, -676, 351, -153
18612, -105, 976, 184, 140, 7980, 840, -679, 345, -159
18613, -106, 975, 185, 140, 8330, 910, -673, 348, -154
18614, -108, 978, 184, 210, 9100, 1190, -676, 352, -166
18615, -108, 976, 185, 280, 9660, 1470, -666, 349, -159
18616, -104, 973, 186, 420, 10360, 1610, -670, 343, -166
18617, -99, 968, 189, 560, 11270, 1820, -675, 340, -166
18618, -84, 952, 202, 980, 13090, 2240, -667, 354, -163
18619, -61, 985, 216, 2170, 23240, 4060, -670, 352, -165
18620, -90, 1023, 203, 2100, 27860, 4830, -669, 349, -169
18621, -119, 1015, 196, 1750, 29260, 5040, -675, 352, -163
18622, -128, 975, 195, 1120, 28490, 5040, -675, 358, -159
18623, -98, 943, 199, 1260, 27930, 5320, -667, 349, -159
18624, -83, 960, 200, 1610, 29820, 5530, -672, 346, -174
18625, -84, 974, 198, 1890, 32200, 5810, -670, 348, -163
18626, -91, 980, 196, 2100, 33950, 5950, -672, 361, -177
18627, -103, 982, 190, 2100, 34440, 6090, -670, 354, -175
18628, -120, 976, 184, 1750, 33040, 6020, -675, 352, -172
18629, -126, 974, 185, 1610, 31850, 5880, -664, 354, -178
18630, -132, 977, 186, 1400, 30520, 5670, -672, 349, -174
18631, -132, 979, 185, 1330, 28700, 5390, -670, 363, -175
18632, -125, 977, 185, 1330, 26810, 5180, -664, 346, -171
18633, -129, 970, 185, 1120, 23310, 4900, -669, 348, -172
18634, -132, 970, 185, 1120, 21700, 4760, -673, 348, -181
18635, -135, 973, 186, 1120, 20300, 4620, -658, 342, -192
18636, -142, 978, 188, 1050, 18900, 4550, -669, 354, -183
18637, -158, 981, 189, 700, 14560, 4270, -673, 349, -178
18638, -161, 981, 189, 350, 11410, 4060, -670, 349, -178
18639, -159, 978, 191, 70, 8190, 3850, -670, 346, -180
18640, -154, 977, 192, -280, 5320, 3640, -676, 355, -178
18641, -145, 977, 194, -420, 2870, 3430, -670, 352, -175
18642, -115, 974, 198, -560, -350, 3010, -666, 351, -177
18643, -100, 972, 200, -630, -1120, 2940, -664, 349, -184
18644, -88, 969, 201, -560, -1400, 2870, -672, 337, -177
18645, -84, 969, 202, -490, -1120, 2730, -664, 349, -174
18646, -81, 970, 204, -420, -1050, 2590, -666, 348, -181
18647, -82, 971, 205, -280, -770, 2240, -663, 349, -180
18648, -84, 971, 204, -210, -630, 2100, -667, 351, -180
18649, -84, 971, 203, -210, -350, 1960, -670, 346, -181
18650, -87, 972, 202, -140, -210, 1820, -670, 345, -183
18651, -95, 973, 199, -140, 140, 1750, -676, 351, -177
18652, -98, 975, 197, -70, 140, 1680, -676, 343, -186
18653, -100, 977, 194, -140, -140, 1610, -667, 345, -184
18654, -94, 979, 192, -210, -560, 1330, -670, 354, -183
18655, -85, 979, 190, -280, -980, 1190, -669, 349, -178
18656, -68, 972, 190, -140, -1190, 770, -669, 349, -177
18657, -62, 972, 190, -70, -980, 560, -660, 346, -177
18658, -60, 975, 186, 70, -700, 210, -670, 346, -174
18659, -58, 978, 185, 140, -420, -210, -672, 343, -181
18660, -56, 978, 183, 210, -280, -1050, -676, 364, -181
18661, -49, 975, 184, 280, -210, -1470, -667, 352, -184
18662, -51, 976, 185, 280, 140, -1890, -667, 345, -181
18663, -52, 975, 183, 420, 350, -2310, -676, 348, -181
18664, -51, 976, 180, 490, 770, -2730, -673, 352, -175
18665, -57, 978, 178, 700, 1470, -3570, -673, 346, -184
18666, -65, 976, 177, 700, 1540, -3850, -667, 343, -186
18667, -71, 974, 177, 770, 1330, -4270, -667, 345, -180
18668, -74, 975, 177, 840, 1120, -4690, -672, 346, -181
18669, -76, 977, 176, 910, 840, -5040, -670, 346, -181
18670, -73, 975, 179, 980, 980, -5740, -672, 357, -183
18671, -76, 974, 180, 910, 560, -6090, -673, 346, -184
18672, -73, 973, 183, 980, 630, -6440, -666, 352, -175
18673, -77, 974, 182, 1050, 560, -6650, -670, 346, -187
18674, -70, 972, 188, 1190, 1400, -7280, -672, 346, -181
18675, -78, 971, 192, 1330, 1610, -7490, -666, 345, -189
18676, -88, 971, 190, 1400, 1680, -7770, -670, 358, -183
18677, -89, 972, 192, 1400, 1680, -7980, -669, 357, -187
18678, -98, 971, 192, 1470, 1470, -8260, -663, 343, -177
18679, -121, 977, 183, 1400, 1400, -8540, -672, 354, -174
18680, -90, 969, 195, 1330, 1470, -8610, -658, 355, -189
18681, -116, 967, 183, 1330, 1610, -8680, -664, 346, -177
18682, -94, 960, 197, 1540, 2310, -8820, -663, 339, -175
18683, -115, 964, 187, 1680, 2380, -8890, -666, 355, -178
18684, -110, 980, 184, 1960, 3150, -9100, -663, 357, -177
18685, -96, 979, 190, 1820, 3710, -9240, -666, 348, -174
18686, -47, 1007, 180, 1890, 3920, -9380, -673, 352, -178
18687, -114, 994, 158, 1190, 9380, -8750, -666, 351, -171
18688, -100, 977, 169, 1400, 10920, -8400, -664, 346, -189
18689, -145, 945, 173, 1890, 10850, -8400, -655, 358, -174
18690, -188, 946, 167, 2240, 9800, -8470, -658, 354, -178
18691, -175, 941, 186, 2730, 7490, -8820, -660, 345, -184
18692, -193, 950, 184, 3220, 3360, -9240, -655, 355, -181
18693, -126, 1015, 186, 2520, -2660, -10220, -655, 349, -189
18694, -67, 1024, 198, 1680, -1890, -10360, -654, 348, -181
18695, -78, 996, 186, 1050, 420, -10290, -657, 349, -174
18696, -70, 963, 193, 770, 3640, -10150, -658, 355, -180
18697, -159, 931, 170, 1120, 4760, -10080, -663, 357, -186
18698, -154, 959, 177, 2170, 3360, -10780, -661, 357, -177
18699, -142, 972, 182, 2450, 2030, -11410, -664, 360, -180
18700, -135, 979, 176, 2660, 70, -11690, -663, 351, -178
18701, -119, 995, 177, 2380, 980, -11690, -657, 355, -175
18702, -150, 995, 149, 1400, 2870, -10430, -661, 355, -181
18703, -240, 1010, 126, 910, 3080, -9380, -652, 358, -175
18704, -275, 1031, 108, -70, 5530, -8050, -655, 354, -181
18705, -298, 983, 114, -350, 5670, -6580, -642, 352, -175
18706, -264, 911, 148, 280, 7000, -5880, -652, 354, -186
18707, -212, 931, 163, 2450, 4200, -5530, -648, 354, -178
18708, -194, 993, 158, 2800, 140, -5460, -657, 349, -180
18709, -162, 1006, 178, 2310, -2100, -5460, -654, 358, -181
18710, -158, 994, 186, 1750, -3570, -5320, -648, 355, -180
18711, -147, 989, 193, 1050, -2100, -5180, -646, 361, -184
18712, -136, 967, 194, 280, 3150, -4760, -646, 355, -186
18713, -156, 962, 191, 350, 4830, -4480, -649, 360, -174
18714, -173, 967, 193, 490, 6720, -3990, -649, 354, -190
18715, -208, 971, 181, 770, 7070, -3290, -655, 358, -172
18716, -249, 960, 163, 1190, 7280, -2030, -655, 348, -171
18717, -256, 973, 157, 980, 8050, -1260, -649, 363, -172
18718, -266, 986, 152, 770, 7630, -280, -648, 363, -180
18719, -289, 986, 152, 210, 6930, 630, -648, 360, -178
18720, -318, 982, 152, -140, 4130, 1540, -646, 345, -177
18721, -336, 976, 147, -700, -3290, 2870, -649, 355, -178
18722, -302, 970, 147, -910, -6090, 3570, -652, 352, -175
18723, -268, 971, 150, -1120, -7560, 4480, -643, 346, -181
18724, -239, 980, 152, -1400, -7630, 5600, -648, 361, -177
18725, -221, 983, 154, -1610, -7280, 6720, -655, 355, -187
18726, -221, 978, 160, -1960, -5670, 8330, -649, 351, -175
18727, -218, 981, 153, -1960, -4620, 8960, -655, 357, -180
18728, -192, 982, 157, -2030, -3570, 9660, -666, 345, -178
18729, -183, 981, 151, -2170, -2240, 10360, -660, 354, -181
18730, -170, 983, 149, -2520, -630, 11550, -652, 355, -177
18731, -165, 984, 148, -2520, 350, 11970, -652, 349, -187
18732, -172, 985, 145, -2590, 1260, 12320, -652, 360, -183
18733, -179, 973, 145, -2660, 1540, 12600, -652, 361, -175
18734, -193, 965, 147, -2590, 1330, 12810, -657, 354, -183
18735, -196, 957, 161, -2170, -2800, 12670, -658, 366, -180
18736, -176, 968, 168, -2100, -5740, 12390, -667, 358, -183
18737, -160, 988, 166, -2450, -7210, 12320, -663, 364, -180
18738, -128, 991, 176, -2520, -8190, 12320, -655, 360, -184
18739, -131, 982, 178, -3010, -7280, 12390, -657, 346, -183
18740, -148, 967, 184, -2940, -6580, 12880, -663, 358, -186
18741, -134, 963, 191, -2730, -5040, 13300, -663, 349, -187
18742, -161, 964, 191, -2590, -3430, 13510, -664, 357, -183
18743, -236, 931, 188, -2450, -5740, 13650, -658, 352, -178
18744, -178, 988, 208, -2450, -14700, 13650, -672, 349, -193
18745, -165, 1004, 207, -3010, -15470, 13580, -670, 346, -172
18746, -109, 990, 219, -3360, -16870, 13580, -663, 355, -180
18747, -92, 972, 213, -3710, -15050, 13650, -669, 343, -172
18748, -42, 963, 216, -3640, -13300, 14070, -667, 348, -189
18749, -56, 963, 206, -2940, -5180, 15400, -670, 343, -166
18750, -110, 957, 194, -2520, -1190, 15960, -673, 349, -186
18751, -127, 958, 197, -2170, -140, 16240, -672, 342, -178
18752, -172, 972, 180, -2170, -840, 16170, -675, 357, -180
18753, -147, 979, 188, -2380, -4060, 16030, -672, 352, -178
18754, -110, 972, 197, -3010, -9100, 15540, -666, 346, -187
18755, -107, 975, 189, -3220, -9940, 15470, -673, 345, -175
18756, -64, 977, 196, -3220, -10010, 15470, -675, 343, -183
18757, -59, 981, 187, -3150, -8400, 15610, -664, 343, -186
18758, -24, 972, 187, -2870, -2590, 15890, -667, 340, -174
18759, -17, 971, 189, -2660, 140, 16030, -670, 351, -180
18760, -47, 971, 182, -2520, 1890, 15960, -670, 339, -184
18761, -55, 968, 186, -2310, 1750, 15680, -676, 334, -187
18762, -77, 967, 184, -2170, 210, 15050, -685, 336, -175
18763, -43, 972, 187, -2030, -4340, 13230, -681, 343, -181
18764, -16, 971, 195, -2030, -6860, 12110, -682, 349, -172
18765, -11, 973, 195, -2170, -9240, 10990, -687, 336, -181
18766, 1, 977, 204, -2240, -11900, 9800, -684, 348, -178
18767, -6, 985, 202, -2310, -16590, 7420, -688, 339, -183
18768, 20, 968, 204, -2450, -17080, 6370, -684, 349, -184
18769, 45, 958, 206, -2240, -16730, 5320, -687, 327, -183
18770, 74, 955, 206, -1890, -14980, 4410, -688, 342, -175
18771, 104, 960, 209, -1610, -11690, 3710, -681, 334, -184
18772, 119, 972, 209, -630, -2520, 2660, -691, 342, -177
18773, 157, 980, 197, 0, 2030, 2030, -684, 340, -178
18774, 92, 968, 187, -70, 9590, 1470, -684, 346, -177
18775, 50, 978, 172, 70, 12180, 630, -685, 334, -180
18776, 11, 970, 182, 350, 10500, -420, -679, 336, -190
18777, -41, 976, 193, 770, 1470, -3290, -679, 352, -180
18778, -26, 986, 183, 770, -2030, -4760, -694, 339, -184
18779, 32, 964, 179, 700, -3640, -5950, -670, 343, -172
18780, 183, 954, 188, 980, 2380, -6230, -687, 343, -189
18781, 98, 1011, 171, 1400, 17220, -4690, -682, 342, -180
18782, -80, 969, 179, 1680, 22890, -4060, -669, 334, -184
18783, -147, 968, 177, 2380, 21000, -3780, -672, 339, -186
18784, -267, 979, 151, 2380, 17990, -4340, -688, 340, -178
18785, -265, 968, 177, 2450, 7420, -5320, -682, 340, -186
18786, -189, 988, 206, 630, -16380, -7700, -681, 337, -180
18787, -177, 1006, 206, -490, -24640, -8680, -681, 342, -175
18788, -121, 985, 241, -770, -34160, -9730, -678, 336, -181
18789, -108, 960, 242, -1260, -39410, -10920, -678, 348, -175
18790, -15, 950, 259, -1190, -43470, -11830, -685, 337, -180
18791, 50, 976, 247, -1610, -41720, -13020, -687, 343, -171
18792, -28, 963, 230, -2030, -39970, -13020, -685, 343, -177
18793, 19, 953, 258, -1890, -38080, -13090, -669, 336, -172
18794, -112, 974, 213, -1610, -35980, -12740, -681, 348, -171
18795, -66, 965, 245, -980, -34650, -12040, -691, 345, -156
18796, -145, 943, 235, -910, -35770, -11410, -679, 342, -168
18797, -240, 940, 190, -1330, -34860, -9800, -679, 343, -168
18798, -265, 1051, 201, -1750, -33950, -6860, -679, 348, -166
18799, -309, 1099, 211, -2380, -33740, -4830, -678, 346, -165
18800, -407, 937, 220, -3290, -53410, -5110, -678, 340, -162
18801, -392, 950, 206, -4060, -68320, -5460, -679, 339, -153
18802, -352, 968, 196, -4760, -83020, -5530, -684, 348, -153
18803, -285, 970, 212, -5670, -92890, -5390, -682, 348, -144
18804, -241, 986, 226, -6580, -101010, -5180, -682, 348, -150
18805, -194, 1029, 218, -8260, -116060, -5320, -687, 343, -148
18806, -166, 997, 215, -8750, -124390, -5740, -678, 351, -141
18807, -147, 953, 219, -9310, -131600, -6230, -690, 345, -130
18808, -117, 947, 223, -9520, -138600, -6510, -693, 345, -133
18809, -134, 966, 206, -10150, -148190, -6440, -693, 351, -123
18810, 94, 984, 213, -10150, -142940, -5740, -694, 346, -127
18811, 272, 967, 232, -9660, -126910, -4690, -688, 339, -120
18812, 329, 951, 242, -8400, -104230, -3570, -693, 346, -112
18813, 282, 931, 246, -6650, -84980, -3010, -697, 346, -108
18814, 67, 900, 243, -3360, -63420, -2450, -690, 349, -106
18815, 131, 952, 249, -2310, -59640, -2380, -694, 349, -97
18816, 35, 1004, 231, -2380, -53130, -2450, -693, 346, -100
18817, 32, 1015, 221, -2870, -49560, -2660, -696, 355, -94
18818, 5, 988, 215, -3640, -45500, -3220, -690, 348, -93
18819, 69, 949, 228, -3990, -40250, -4130, -699, 355, -96
18820, 91, 953, 235, -3360, -36750, -4200, -688, 343, -97
18821, 20, 951, 230, -2660, -33110, -4130, -691, 358, -90
18822, -9, 949, 237, -2030, -32760, -4130, -699, 340, -96
18823, -69, 982, 247, -1680, -33390, -4270, -700, 357, -87
18824, 35, 991, 244, -1820, -28280, -4200, -691, 351, -97
18825, 62, 977, 242, -1890, -22540, -4410, -693, 351, -91
18826, 60, 946, 246, -1750, -19250, -4690, -694, 355, -96
18827, 53, 940, 248, -1610, -17150, -4970, -696, 355, -82
18828, 14, 968, 252, -1470, -18410, -5950, -688, 343, -93
18829, -23, 973, 258, -1680, -20580, -6720, -688, 342, -90
18830, -52, 975, 268, -2100, -24360, -7420, -694, 342, -93
18831, -71, 978, 275, -2660, -28910, -7980, -690, 348, -85
18832, -66, 982, 282, -3360, -32620, -8540, -697, 354, -91
18833, -40, 968, 289, -4410, -37940, -9380, -687, 346, -88
18834, -27, 955, 291, -4760, -39550, -9730, -691, 348, -81
18835, -21, 948, 292, -4970, -40880, -10150, -690, 354, -79
18836, 15, 945, 300, -4900, -41020, -10500, -696, 346, -76
18837, 39, 931, 316, -4060, -35700, -10500, -696, 351, -76
18838, 33, 928, 324, -3500, -32760, -10430, -687, 349, -79
18839, 42, 935, 333, -3150, -29470, -10290, -691, 349, -73
18840, 42, 949, 340, -2730, -25620, -10150, -690, 354, -72
18841, 34, 960, 344, -2450, -21070, -9800, -687, 349, -70
18842, 10, 955, 339, -2030, -13440, -9170, -684, 349, -73
18843, 15, 944, 335, -1820, -10080, -8960, -687, 349, -67
18844, 3, 942, 334, -1470, -7280, -8820, -678, 357, -67
18845, 2, 944, 333, -1120, -4970, -8680, -688, 349, -73
18846, 0, 937, 337, -630, -3360, -8400, -681, 354, -72
18847, -24, 926, 341, 280, -980, -8120, -687, 357, -72
18848, -31, 930, 343, 770, -560, -8050, -688, 361, -76
18849, -45, 937, 345, 1120, 70, -7980, -691, 354, -72
18850, -50, 943, 345, 1120, 70, -7980, -696, 352, -69
18851, -50, 930, 345, 840, -1050, -8470, -690, 360, -82
18852, -45, 931, 339, 700, -1610, -8680, -684, 349, -73
18853, -32, 926, 343, 560, -1890, -8820, -694, 361, -72
18854, -8, 915, 348, 630, -1400, -8890, -688, 354, -69
18855, 3, 912, 348, 700, 280, -8960, -675, 364, -78
18856, 3, 967, 351, 980, 5040, -8960, -679, 354, -75
18857, -7, 990, 347, 980, 7210, -8960, -679, 358, -73
18858, -25, 987, 350, 630, 7630, -9170, -670, 366, -76
18859, -54, 967, 349, 210, 6160, -9590, -682, 364, -75
18860, -87, 946, 344, -210, 1890, -10430, -681, 360, -75
18861, -93, 907, 336, -560, -6090, -12180, -678, 355, -73
18862, -59, 893, 351, 70, -7490, -12600, -678, 361, -73
18863, -24, 896, 362, 910, -6370, -12670, -681, 355, -69
18864, 0, 913, 358, 1820, -3290, -12530, -684, 357, -78
18865, 4, 963, 361, 3080, 5460, -11690, -676, 354, -70
18866, -17, 976, 348, 3150, 8820, -11340, -672, 355, -73
18867, -42, 969, 344, 2730, 10500, -11060, -681, 355, -72
18868, -54, 949, 344, 2030, 10640, -11060, -687, 358, -75
18869, -54, 923, 335, 1470, 10500, -11200, -673, 358, -81
18870, -34, 900, 341, 700, 13720, -11270, -676, 366, -73
18871, -37, 902, 341, 700, 16030, -10990, -678, 360, -73
18872, -44, 898, 352, 840, 17500, -10570, -673, 364, -73
18873, -46, 881, 373, 1050, 18760, -10150, -673, 361, -79
18874, -41, 868, 372, 1680, 20090, -9380, -682, 355, -78
18875, -24, 821, 380, 3780, 26040, -8820, -675, 363, -70
18876, -1, 803, 380, 5320, 30100, -8260, -667, 358, -73
18877, 9, 791, 379, 7140, 34930, -7840, -673, 361, -70
18878, 11, 822, 373, 9310, 38920, -7490, -663, 369, -73
18879, 7, 863, 361, 13230, 45360, -6580, -666, 357, -73
18880, -25, 834, 358, 14350, 47810, -6020, -660, 355, -76
18881, -108, 813, 355, 14770, 47810, -5740, -666, 369, -73
18882, -225, 808, 346, 14280, 41370, -5880, -670, 358, -76
18883, -124, 859, 350, 13230, 36890, -6230, -660, 370, -78
18884, -353, 1012, 315, 9310, 21980, -7700, -664, 355, -79
18885, -188, 1090, 342, 6510, 14490, -8470, -672, 372, -73
18886, -370, 1181, 309, 3290, 6160, -9380, -672, 360, -75
18887, -203, 1321, 322, 0, -5180, -10150, -667, 367, -78
18888, -250, 1357, 297, -7560, -16730, -11340, -664, 369, -81
18889, -260, 1086, 257, -10710, -22820, -12110, -663, 373, -84
18890, -208, 1022, 249, -12460, -32620, -12810, -667, 364, -82
18891, -220, 1010, 275, -13370, -40460, -13580, -670, 372, -78
18892, -121, 947, 321, -13090, -45710, -14490, -666, 367, -87
18893, -113, 727, 313, -10780, -41020, -16240, -675, 369, -82
18894, -136, 807, 285, -8540, -43890, -17500, -661, 361, -70
18895, -203, 1001, 270, -6790, -47950, -19110, -658, 378, -67
18896, -216, 1092, 254, -5740, -56910, -20720, -655, 378, -75
18897, -275, 1018, 220, -6860, -64120, -22610, -664, 373, -73
18898, -431, 887, 164, -13790, -96040, -28070, -655, 372, -69
18899, -440, 876, 170, -17430, -119140, -31500, -660, 376, -66
18900, -480, 869, 164, -21210, -139370, -35560, -655, 375, -76
18901, -268, 797, 204, -23730, -154700, -39690, -661, 378, -63
18902, 66, 694, 315, -23380, -131110, -46550, -655, 378, -63
18903, 329, 805, 310, -19040, -106820, -48370, -649, 382, -54
18904, 385, 917, 256, -13440, -75530, -47460, -651, 372, -57
18905, 290, 1011, 232, -7910, -49910, -44590, -655, 378, -57
18906, 305, 1054, 268, -4060, -32830, -41440, -643, 373, -57
18907, -155, 1309, 292, -2870, -13510, -36190, -646, 384, -57
18908, -338, 1383, 317, -4270, -10500, -33670, -640, 382, -58
18909, -417, 1281, 325, -5880, -5460, -30800, -642, 388, -63
18910, -510, 1070, 323, -7000, -350, -27860, -640, 384, -63
18911, -466, 946, 315, -7630, 1330, -24990, -630, 381, -66
18912, -347, 869, 308, -7210, 10150, -18830, -636, 388, -55
18913, -291, 782, 310, -6160, 16660, -15540, -639, 391, -58
18914, -214, 719, 316, -4550, 23590, -12530, -633, 384, -66
18915, -183, 694, 327, -2520, 32550, -9730, -636, 379, -58
18916, -169, 714, 319, 2170, 48300, -5530, -639, 385, -61
18917, -192, 708, 338, 4340, 53060, -3990, -637, 397, -66
18918, -209, 702, 339, 6230, 52710, -3080, -637, 381, -63
18919, -239, 741, 362, 7420, 50890, -2450, -636, 387, -52
18920, -253, 856, 394, 8680, 48580, -1470, -637, 381, -69
18921, -294, 1004, 439, 10080, 44800, 1260, -633, 388, -60
18922, -329, 1021, 443, 10780, 47320, 3220, -627, 387, -63
18923, -258, 1069, 441, 11480, 49700, 5390, -637, 394, -66
18924, -267, 1094, 424, 11410, 53060, 7420, -643, 379, -57
18925, -258, 1056, 352, 10780, 53270, 9310, -619, 390, -61
18926, -200, 923, 336, 9100, 57470, 11830, -633, 391, -73
18927, -80, 843, 358, 9660, 62300, 13160, -645, 388, -54
18928, 22, 834, 361, 11620, 69930, 14560, -628, 388, -70
18929, 117, 874, 347, 14770, 82530, 16450, -636, 391, -66
18930, 76, 920, 280, 22330, 112420, 20300, -640, 385, -70
18931, -234, 1095, 254, 23030, 116690, 21210, -643, 393, -64
18932, -385, 1175, 205, 20860, 105700, 21280, -648, 384, -67
18933, -434, 1262, 199, 16100, 85960, 20510, -636, 384, -69
18934, -426, 1342, 195, 11200, 62790, 19180, -634, 375, -67
18935, -263, 1134, 186, 4970, 32690, 17150, -642, 382, -63
18936, -274, 832, 198, 3710, 24850, 16170, -646, 385, -64
18937, -286, 634, 223, 3080, 16380, 14770, -636, 379, -78
18938, -222, 637, 214, 3010, 7630, 13300, -646, 388, -70
18939, -153, 751, 216, 3010, 4410, 12040, -649, 384, -63
18940, -153, 951, 256, 3010, 1750, 11200, -649, 381, -69
18941, -216, 962, 278, 1820, -5180, 10220, -649, 372, -69
18942, -238, 983, 325, 70, -15260, 8890, -645, 388, -73
18943, -176, 1038, 349, -420, -24010, 7560, -657, 382, -64
18944, -106, 1099, 354, 3080, -16940, 6650, -651, 381, -73
18945, -136, 957, 350, 5810, -10150, 6300, -633, 379, -78
18946, -202, 823, 298, 7280, -9590, 5530, -649, 379, -66
18947, -272, 829, 250, 6720, -16310, 4690, -643, 378, -66
18948, -319, 958, 233, 4830, -26600, 3430, -651, 379, -60
18949, -364, 1010, 286, 0, -42840, 1820, -652, 375, -61
18950, -296, 1052, 286, -1680, -45150, 2100, -651, 384, -55
18951, -305, 1053, 315, -3430, -43050, 2940, -652, 366, -58
18952, -330, 918, 329, -5250, -43260, 4060, -649, 367, -64
18953, -340, 815, 348, -6790, -43820, 5110, -637, 372, -57
18954, -251, 909, 322, -8260, -41860, 7000, -654, 378, -64
18955, -308, 762, 341, -8470, -38570, 7630, -645, 373, -67
18956, -246, 585, 359, -8540, -38710, 7840, -652, 379, -61
18957, -165, 604, 384, -8330, -38640, 7630, -651, 378, -58
18958, -8, 888, 425, -5600, -31220, 7420, -640, 379, -61
18959, 42, 1058, 454, -2450, -24220, 7490, -660, 376, -61
18960, 4, 1284, 457, 980, -14490, 7630, -655, 375, -58
18961, -74, 1518, 453, 3710, -5950, 8050, -646, 378, -54
18962, -302, 1396, 458, 4060, -2240, 7350, -655, 375, -63
18963, -214, 831, 351, 2730, -23310, 5040, -649, 373, -64
18964, -58, 1009, 299, 3430, -23590, 5600, -643, 378, -58
18965, -96, 1035, 301, 4830, -14980, 7210, -654, 372, -67
18966, -195, 820, 335, 5950, -9100, 8470, -661, 384, -57
18967, -382, 686, 372, 5530, -13230, 8400, -654, 373, -61
18968, -307, 1030, 341, 3220, -29050, 7700, -651, 384, -63
18969, -236, 935, 351, 3430, -25970, 8750, -651, 370, -61
18970, -179, 737, 360, 4410, -21280, 9870, -651, 373, -55
18971, -243, 597, 369, 4830, -20440, 10570, -658, 376, -51
18972, -179, 638, 451, 6160, -27020, 10290, -660, 375, -45
18973, -37, 945, 431, 8960, -21630, 10640, -663, 370, -45
18974, -35, 1076, 403, 11270, -6440, 11970, -658, 376, -39
18975, -155, 846, 337, 11970, 1960, 12880, -667, 376, -54
18976, -305, 513, 370, 9940, -3780, 12250, -667, 361, -48
18977, -79, 460, 375, 6720, -30100, 10010, -664, 370, -39
18978, 96, 508, 340, 9240, -17990, 10920, -657, 373, -46
18979, 177, 512, 296, 13790, 4340, 12740, -672, 370, -42
18980, -72, 838, 297, 15750, 20230, 13650, -664, 372, -36
18981, -344, 1363, 319, 12670, 13720, 12740, -673, 375, -43
18982, -503, 2005, 397, -6090, -41090, 7980, -669, 367, -43
18983, -412, 1801, 382, -15190, -64680, 6020, -667, 381, -40
18984, -158, 1432, 322, -20720, -74620, 5180, -660, 373, -42
18985, -104, 1051, 222, -22960, -74200, 5040, -666, 376, -43
18986, -273, 450, 351, -23730, -77840, 1470, -660, 369, -46
18987, -267, 173, 348, -22400, -81900, -1470, -663, 376, -40
18988, -29, 259, 263, -18690, -77980, -3780, -657, 369, -36
18989, 474, 1320, 218, -14210, -65100, -3990, -673, 382, -37
18990, 348, 2205, 206, -13790, -46410, -4340, -666, 381, -39
18991, -417, 1697, 714, -23240, -86590, -15400, -666, 372, -33
18992, -2, 1367, 577, -22050, -107100, -21840, -661, 384, -39
18993, 692, 932, 442, -13580, -67060, -24220, -666, 384, -30
18994, 718, 295, 314, -490, -2100, -21980, -664, 375, -34
18995, 514, -370, 377, 9940, 57960, -21630, -661, 376, -30
18996, 21, -127, 360, 14070, 35070, -24010, -657, 382, -30
18997, 185, 914, 240, 14210, 37870, -24780, -661, 376, -28
18998, 366, 1917, 196, 16870, 63350, -22260, -646, 379, -24
18999, 156, 1916, 214, 16800, 92470, -19390, -654, 381, -36
19000, -577, 829, 377, 1050, 34230, -21630, -651, 379, -33
19001, -205, 858, 372, -7560, -5390, -23380, -649, 391, -28
19002, 145, 909, 282, -7630, 3080, -21070, -651, 379, -28
19003, 420, 609, 274, 70, 51240, -16030, -654, 385, -25
19004, 69, -144, 337, 8330, 99540, -12110, -655, 370, -37
19005, -585, -431, 231, 13790, 82670, -12880, -643, 373, -42
19006, -173, 817, 241, 14910, 64050, -12880, -657, 373, -36
19007, 21, 1928, 306, 14700, 71680, -10920, -646, 378, -33
19008, -187, 2151, 342, 11480, 77350, -9940, -651, 378, -37
19009, -614, 1671, 274, -8050, -7000, -14770, -648, 378, -37
19010, -479, 2194, 339, -16030, -53970, -17010, -640, 376, -39
19011, 234, 2571, 514, -17500, -58520, -14910, -652, 378, -36
19012, 322, 1954, 536, -13370, -20370, -12250, -645, 372, -46
19013, -85, 362, 490, -6440, 12950, -10780, -642, 384, -39
19014, -343, -709, 360, 3150, 13510, -11200, -639, 375, -48
19015, -167, -221, 310, 8610, 13020, -10920, -640, 381, -36
19016, 51, 205, 285, 15260, 32690, -9520, -642, 385, -40
19017, -14, 247, 264, 21140, 56490, -8750, -633, 384, -31
19018, -293, -19, 288, 23590, 60830, -9310, -631, 388, -33
19019, -307, 2069, 130, 21070, 19740, -11690, -649, 387, -42
19020, -7, 2719, 391, 14840, 12180, -11410, -637, 385, -43
19021, -142, 2973, 463, 8960, -3920, -10570, -640, 390, -30
19022, -208, 2351, 483, 2940, -16520, -9380, -640, 378, -39
19023, -116, 1409, 355, 1680, -10080, -4340, -640, 378, -37
19024, -149, -73, 257, 5040, 3850, -980, -643, 376, -34
19025, -359, -78, 234, 8050, 17570, 3080, -651, 379, -39
19026, -276, 249, 229, 11340, 22330, 5950, -646, 379, -34
19027, -401, 531, 183, 12810, 31990, 8610, -648, 381, -34
19028, -574, 389, 250, 11200, 28210, 11270, -646, 387, -39
19029, -372, 783, 189, 9870, 14210, 12740, -648, 384, -28
19030, -451, 1679, 102, 6020, 11200, 14140, -652, 394, -37
19031, -544, 1998, 177, 770, -1400, 15610, -645, 387, -48
19032, -639, 1953, 231, -8610, -25620, 15750, -645, 391, -39
19033, -815, 1271, 208, -31150, -105070, 14630, -649, 388, -36
19034, -614, 1086, 209, -35210, -121520, 15260, -649, 385, -42
19035, -334, 784, 267, -33390, -107870, 16870, -654, 387, -40
19036, -264, 529, 263, -27930, -89390, 17920, -648, 390, -36
19037, -478, 281, 206, -22120, -71540, 14840, -660, 387, -36
19038, 43, -77, 719, -8890, -82390, 13160, -645, 387, -37
19039, 1077, 1143, 497, 9240, -21840, 17360, -663, 393, -36
19040, 1037, 1769, 259, 26670, 77420, 24010, -655, 378, -24
19041, 398, 722, 527, 37240, 134680, 27370, -657, 387, -27
19042, -517, 1613, 234, 27510, 25340, 18550, -658, 393, -34
19043, 305, 3059, 47, 17500, 140, 19040, -658, 382, -25
19044, 383, 2472, 175, 12040, 26600, 20650, -663, 375, -27
19045, -74, 1065, 249, 9240, 34020, 20370, -670, 382, -21
19046, -439, -350, 337, 3780, 11550, 16730, -661, 381, -24
19047, 319, -84, 212, 6230, -21420, 12390, -664, 375, -22
19048, 723, 311, 94, 16030, 36400, 14140, -664, 376, -24
19049, 440, 193, 190, 25270, 88270, 15330, -658, 373, -22
19050, -233, -75, 274, 27020, 99190, 11410, -664, 382, -27
19051, -857, 1097, 203, 14560, 2590, -840, -667, 379, -22
19052, 162, 1933, 104, 8750, -7070, -2380, -670, 375, -12
19053, 611, 2109, 228, 5880, 5110, -1750, -669, 370, -22
19054, 45, 1855, 201, -1120, 12180, -2310, -666, 376, -30
19055, -380, 1746, 140, -11760, -24360, -5390, -657, 381, -27
19056, -592, 1853, 154, -37450, -110810, -13650, -666, 373, -31
19057, -94, 1250, 233, -42980, -112980, -15540, -661, 373, -21
19058, -229, 560, 54, -41020, -98280, -15960, -669, 373, -28
19059, 207, 241, 215, -36960, -71260, -15190, -654, 373, -30
19060, -330, -171, 174, -33670, -51380, -16590, -664, 376, -21
19061, 203, -634, 629, -20300, -52990, -22330, -663, 372, -21
19062, 878, 540, 768, -1260, -32340, -23030, -663, 381, -24
19063, 1354, 2291, 589, 20370, 46130, -19950, -657, 384, -25
19064, 895, 2387, 375, 37940, 135310, -15820, -660, 379, -27
19065, -478, 751, 345, 43610, 131250, -17780, -658, 379, -28
19066, -732, 995, 134, 30800, 53690, -20230, -661, 378, -28
19067, -131, 2024, -9, 20650, 560, -19600, -657, 382, -39
19068, -23, 2074, 142, 15260, 6370, -17710, -657, 388, -27
19069, -221, 1273, 189, 14840, 24710, -17290, -658, 382, -30
19070, -731, 510, 143, 9030, -7140, -22610, -654, 384, -22
19071, -564, 662, 202, 2800, -31010, -24430, -651, 385, -34
19072, -173, 751, 211, 2310, -40040, -24150, -646, 390, -27
19073, 20, 675, 229, 4620, -18410, -22260, -652, 390, -36
19074, -151, 844, 130, 8190, 980, -20720, -645, 391, -31
19075, -1009, 1503, 140, -3920, -22890, -21350, -648, 388, -24
19076, -1032, 995, 270, -14140, -84350, -25480, -660, 396, -28
19077, -670, 449, 326, -20930, -126420, -28350, -646, 394, -19
19078, -212, 333, 130, -19110, -124180, -27160, -639, 390, -19
19079, -175, 259, 238, -2800, -18690, -20510, -639, 394, -16
19080, -455, 345, 399, 1750, -19180, -22120, -634, 394, -9
19081, -1065, 1032, 202, -3780, -44450, -26740, -631, 390, -9
19082, -580, 1850, 302, -10010, -85960, -31500, -633, 384, -18
19083, -427, 1879, 222, -18060, -83160, -33250, -631, 402, -10
19084, -103, 1100, 278, -21630, -71330, -34440, -630, 388, -13
19085, -355, 1072, 418, -21840, -71470, -35280, -634, 394, -24
19086, -238, 1369, 530, -19530, -71190, -35560, -622, 397, -12
19087, -231, 1159, 411, -16310, -55090, -35210, -624, 390, -16
19088, -364, 780, 365, -14210, -21980, -34370, -621, 390, -19
19089, -269, -508, 346, -4480, -6090, -33040, -627, 396, -13
19090, 8, -250, 387, 2730, 5740, -30520, -621, 391, -12
19091, 300, 124, 421, 11060, 36680, -27300, -622, 394, -9
19092, 302, 122, 377, 20650, 72730, -22820, -622, 385, -13
19093, -12, 663, 196, 33600, 123760, -12880, -631, 397, -12
19094, -273, 1792, 238, 30660, 126280, -8680, -624, 387, -15
19095, -747, 3115, 140, 20790, 87220, -6860, -621, 391, -19
19096, -1245, 3687, 194, 3710, 27930, -7840, -624, 393, -15
19097, -1458, 3191, -37, -14980, -45150, -10010, -622, 393, -22
19098, -842, 2268, 78, -35910, -147000, -14210, -622, 397, -24
19099, -25, 1445, 292, -35350, -141960, -12040, -616, 393, -22
19100, -506, 131, 223, -33950, -92190, -9660, -610, 391, -28
19101, 42, -825, 362, -23660, -87780, -6090, -615, 402, -22
19102, 203, -764, 448, -18760, -28770, 770, -624, 400, -21
19103, 685, -307, 358, 210, 16450, 3710, -612, 397, -21
19104, 262, -424, 413, 9590, 48650, 4340, -610, 396, -22
19105, 249, -305, 373, 18270, 66010, 5390, -619, 409, -24
19106, 338, -90, 273, 26530, 81830, 7070, -615, 399, -33
19107, 126, -31, 223, 39130, 120750, 7280, -615, 400, -18
19108, 35, 55, 155, 40810, 132860, 6160, -628, 405, -30
19109, -132, 1588, 44, 41160, 126140, 2940, -628, 405, -6
19110, -700, 3836, 146, 34300, 126630, -4130, -621, 405, -24
19111, -931, 3908, 392, 24360, 84000, -10150, -622, 405, -18
19112, -884, 1688, 130, -9100, -2730, -22470, -624, 400, -19
19113, -213, 1210, 287, -15050, -74130, -25200, -624, 390, -12
19114, 183, 677, 172, -19810, -59290, -23520, -610, 390, -33
19115, 234, 50, 141, -13230, -32130, -19250, -616, 390, -18
19116, 464, -319, 323, 2310, 33600, -16240, -615, 396, -21
19117, 160, -722, 337, 8120, 33880, -17010, -618, 400, -13
19118, 118, -303, 373, 14350, 41440, -18340, -615, 381, -16
19119, 520, 717, 244, 23590, 63910, -15960, -612, 393, -21
19120, 524, 1175, 305, 30870, 114940, -17010, -612, 399, -27
19121, -612, 1510, 342, 30660, 84000, -25970, -607, 396, -25
19122, -626, 3283, 42, 22260, 42210, -31360, -607, 381, -18
19123, -304, 3721, 174, 13440, 10570, -33250, -606, 387, -25
19124, -622, 2447, 85, 1540, 210, -35140, -603, 396, -12
19125, -660, 844, 242, -7910, -39270, -35000, -597, 390, -18
19126, 206, 424, 263, -8470, -66570, -29540, -597, 393, -13
19127, 258, 1423, 101, -1190, 3920, -23380, -600, 394, -22
19128, -933, 1150, -80, 3430, 60130, -18200, -597, 385, -19
19129, -914, 188, 606, 2870, 52150, -21000, -594, 397, -19
19130, -1581, -717, 181, -980, -44310, -22750, -597, 388, -18
19131, 633, 92, 208, 7280, 21840, -12950, -597, 390, -30
19132, 860, 235, 107, 24290, 112140, -770, -592, 390, -19
19133, 73, -437, 245, 35210, 182000, 6930, -600, 394, -18
19134, -1037, -726, 366, 34440, 165480, 8190, -597, 399, -25
19135, -727, 3344, -9, 22820, 45010, 6650, -604, 396, -18
19136, -541, 3997, -20, 12040, 41580, 6720, -585, 397, -25
19137, -984, 3293, 76, -5250, 22470, 2380, -601, 402, -27
19138, -1536, 1301, 245, -26600, -63770, -2520, -594, 394, -30
19139, -1008, 580, 306, -40950, -164570, -7070, -600, 402, -25
19140, 491, 1155, 122, -31500, -97300, 1400, -603, 408, -36
19141, -55, 654, 307, -17150, -4620, 3850, -601, 399, -13
19142, -1035, -205, 238, -9940, 13090, -1540, -598, 396, -27
19143, -1545, -7, 322, -15470, -24290, -8820, -595, 396, -30
19144, -398, 886, 533, -13440, -66500, -13860, -594, 399, -25
19145, 647, 808, 533, -2030, 210, -10990, -598, 397, -24
19146, 479, 52, 404, 12110, 36960, -8120, -586, 394, -25
19147, 70, -874, 628, 18830, 54320, -9870, -592, 388, -25
19148, -886, -237, 8, 19110, 37660, -9030, -594, 393, -33
19149, -385, 2735, 18, 24080, 41580, -10640, -591, 388, -22
19150, -663, 2609, 78, 18620, 56490, -12390, -588, 391, -25
19151, -1330, 1789, 1, 4340, 37310, -15610, -586, 384, -16
19152, -781, 1160, 355, -5250, -38640, -20020, -585, 402, -18
19153, -516, 1392, 48, -14700, -63000, -18970, -595, 390, -30
19154, 172, 175, 281, -6160, 22050, -3010, -594, 390, -24
19155, -237, -551, 263, 1120, 58730, 4340, -585, 390, -18
19156, -777, -365, 230, 4200, 60130, 7070, -589, 399, -28
19157, -1092, 301, 75, 5040, 35980, 8400, -582, 385, -24
19158, -471, 452, 85, 10500, 31080, 12740, -595, 394, -25
19159, 72, 1845, 115, 11410, 54880, 16730, -594, 393, -33
19160, -642, 2843, -46, 4620, 64750, 15750, -582, 393, -24
19161, -1742, 2748, -236, -8610, 19530, 10150, -585, 397, -24
19162, -1595, 1917, 25, -25550, -61110, 3360, -589, 394, -33
19163, 148, 259, 244, -41370, -118160, 6790, -592, 403, -28
19164, 1225, 522, 260, -25340, -62860, 16730, -598, 397, -39
19165, 470, 366, 168, -11900, 46970, 23030, -595, 400, -42
19166, -437, -461, 369, -2380, 75530, 23870, -589, 396, -30
19167, -913, -655, 648, -4690, 62090, 19390, -597, 391, -43
19168, 931, 1566, 143, 14980, 69300, 24290, -595, 397, -30
19169, 1136, 1747, 37, 29050, 159180, 29330, -598, 397, -25
19170, -50, 399, 231, 34930, 214690, 27160, -603, 396, -39
19171, -1659, -230, 30, 23380, 170170, 20720, -594, 396, -30
19172, -292, 2404, -100, 8680, -22820, 8260, -594, 385, -34
19173, 955, 2373, 154, 3150, 14210, 11690, -606, 390, -36
19174, -23, 1503, 79, 1680, 41580, 13020, -592, 382, -28
19175, -482, 80, 493, -2240, 1610, 10080, -597, 393, -37
19176, -1277, -837, 33, -16450, -31430, 7980, -600, 387, -33
19177, 956, 668, 84, -2730, -22120, 15890, -606, 384, -31
19178, 666, 992, 106, 8680, 54950, 21070, -609, 390, -39
19179, -793, 840, 28, 10360, 89530, 19250, -604, 384, -34
19180, -1785, 1845, -70, 3570, 28350, 8330, -595, 382, -31
19181, -2228, 2969, -394, -14560, -57610, -4900, -609, 382, -34
19182, -381, 2793, 67, -30170, -150290, -16660, -601, 397, -40
19183, 503, 1339, 253, -23310, -125930, -11900, -610, 393, -34
19184, 516, 111, 306, -12390, -68460, -6440, -607, 382, -34
19185, 37, -508, 304, -1750, -32270, -2030, -597, 390, -42
19186, -547, -663, 168, 7630, -41720, 1330, -600, 385, -46
19187, -181, -386, 210, 11690, -49350, 1470, -604, 394, -27
19188, 142, -43, 169, 18340, -34510, 2520, -606, 391, -33
19189, 128, 542, 200, 24920, -3010, 2870, -601, 396, -31
19190, -1022, 849, 129, 25060, 36190, -980, -594, 396, -16
19191, -661, 885, 318, 23240, 6930, -10430, -603, 394, -18
19192, -430, 2392, 0, 17780, 12670, -9660, -597, 394, -12
19193, -351, 2941, 44, 10640, 39480, -5040, -592, 385, -10
19194, -534, 1482, 272, 3220, 51100, -770, -598, 384, -21
19195, -936, 625, 136, -5180, 31920, 840, -601, 397, -21
19196, -81, 1345, 110, -13930, -4060, 7490, -594, 394, -30
19197, -274, 495, 24, -14700, 15050, 12950, -595, 397, -18
19198, -115, 115, 198, -11970, 10360, 16520, -598, 381, -25
19199, -705, 900, -7, -14560, -560, 17290, -610, 391, -25
19200, -1163, 1387, 118, -29960, -74410, 12530, -604, 384, -27
19201, -1312, 438, 169, -36750, -130620, 7490, -610, 394, -30
19202, -986, -70, -3, -38850, -160860, 3850, -607, 385, -31
19203, 233, 604, 130, -30310, -179270, 1820, -609, 384, -16
19204, -479, 1207, -233, -28000, -134820, -1540, -600, 382, -22
19205, -807, 1201, 731, -6440, -149730, -19040, -600, 385, -18
19206, -377, 1248, 319, 5600, -106400, -19250, -604, 382, -27
19207, 1102, 696, 379, 21560, -34930, -18830, -603, 379, -21
19208, 267, -22, 266, 33880, 26390, -19180, -588, 378, -16
19209, -741, 385, 217, 32130, 34930, -21140, -592, 394, -18
19210, -727, 2146, 129, 14560, -48300, -31080, -589, 381, -21
19211, -202, 1498, 191, 7210, -37170, -31220, -594, 387, -12
19212, 282, 204, 221, 8890, -7420, -28560, -598, 391, -16
19213, 553, -134, 334, 16940, 39060, -23380, -597, 391, -15
19214, 74, -221, 125, 31150, 126350, -9730, -589, 391, -13
19215, -374, -245, 52, 32970, 145180, -3920, -595, 399, -15
19216, -111, -221, 223, 36260, 134750, -840, -589, 390, -15
19217, -195, 876, -74, 37660, 131180, 2240, -594, 394, -10
19218, -171, 2575, -77, 34370, 132860, 4130, -595, 394, -12
19219, -1270, 2199, 222, 2240, 36610, -3990, -603, 396, 0
19220, -1550, 1196, -85, -18340, -56910, -10080, -592, 388, -3
19221, -285, 1060, 72, -25690, -124670, -9240, -589, 385, -1
19222, 869, 986, 193, -26250, -84840, -2310, -598, 391, -1
19223, 677, 659, 45, -17710, 31920, 8330, -595, 388, -12
19224, -674, 38, 157, -11480, 22120, 5110, -586, 382, -22
19225, -399, 360, 506, -12110, -25060, -700, -595, 388, -6
19226, -64, 1472, 382, -7630, -31500, 140, -586, 376, -9
19227, 1260, 2466, 278, 7700, 19880, 3220, -592, 385, -9
19228, -644, 1231, 152, 30030, 123270, 350, -588, 388, -10
19229, -544, 245, -12, 24850, 100450, -2800, -595, 387, -7
19230, -52, -50, 558, 18340, 65590, -9520, -597, 388, -13
19231, 246, 616, -92, 24150, 7840, -10010, -598, 391, -1
19232, 1084, 997, 20, 21630, 84980, -3010, -589, 387, -1
19233, -425, 2529, -144, 21280, 133910, -2940, -592, 384, -9
19234, -2340, 2660, -737, -700, 73920, -11620, -591, 384, -4
19235, -996, 1520, 466, -7840, -103670, -26530, -598, 382, 1
19236, -1252, 582, -333, -40670, -119350, -23380, -601, 381, -7
19237, 1010, 611, 385, -22820, -90090, -13720, -601, 390, -10
19238, 561, 152, 123, -13580, -18690, -6930, -588, 391, -19
19239, -562, -423, 345, -15050, 3500, -6650, -594, 385, -16
19240, -1252, -361, 151, -18130, -64680, -13510, -592, 396, -15
19241, -750, 161, -18, -23170, -101920, -15470, -586, 390, -30
19242, -234, 1483, -30, -13370, 2520, -9660, -592, 405, -19
19243, -1657, 1535, -53, -10710, 34930, -10640, -591, 396, -15
19244, -2007, 1902, 241, -15120, -16450, -25270, -589, 394, -15
19245, -3512, 2131, -572, -46550, -56070, -34930, -594, 399, -12
19246, -1069, 1596, 174, -28560, -272020, -55510, -583, 388, -21
19247, 1754, -261, 534, -33460, -204680, -51870, -576, 396, -16
19248, 1138, -343, 399, -20580, -64820, -41440, -579, 396, -21
19249, 1404, -282, 672, 5180, 13020, -28140, -571, 394, -37
19250, 922, -359, 356, 24710, 115430, -16450, -565, 385, -25
19251, 461, -702, 293, 33040, 206150, -9590, -571, 391, -13
19252, -1906, 1581, -73, 36190, 159460, -16240, -576, 387, -16
19253, -939, 2201, 137, 36120, 143640, -18830, -571, 397, -13
19254, -538, 1882, 44, 30800, 156310, -17920, -574, 393, -19
19255, -502, 1025, 150, 25130, 140980, -17780, -574, 387, -15
19256, -491, 1980, -73, 11340, 53200, -18270, -567, 400, -12
19257, -893, 2650, -213, -560, 40740, -15470, -571, 394, -19
19258, -467, 2793, -158, -7700, 1820, -16100, -577, 393, -12
19259, -1536, 2658, -486, -26740, -17500, -14770, -564, 387, -18
19260, -429, 1554, 186, -33530, -130480, -17010, -576, 385, -16
19261, -289, 63, 147, -48720, -221270, -12460, -558, 399, -31
19262, 388, 248, -76, -46410, -151690, -910, -570, 388, -27
19263, 208, 98, 123, -34790, -89740, 6860, -568, 394, -34
19264, -471, -564, 294, -26600, -68810, 10080, -564, 391, -30
19265, -846, -1001, 259, -25130, -122640, 6090, -565, 400, -40
19266, 270, -192, 465, -15960, -115150, 3080, -564, 397, -46
19267, 899, 348, 272, 4130, -61740, 5670, -571, 399, -39
19268, 1208, 656, 607, 27230, 42560, 8330, -567, 400, -31
19269, -1062, 875, 174, 44940, 139580, 8330, -570, 402, -33
19270, -2399, 797, -196, 48930, 203980, -4060, -567, 396, -25
19271, -615, 789, 711, 64330, 82390, -20160, -573, 393, -25
19272, -1491, 2045, -834, 38290, 126770, -12880, -553, 393, -19
19273, -162, 3061, 358, 40880, 76860, -14140, -571, 396, -19
19274, -1129, 2319, -356, 30730, 61740, -11200, -562, 391, -9
19275, -877, 901, 19, 5180, -61740, -10990, -559, 391, -19
19276, -275, 954, 161, -5320, -100380, -8260, -556, 390, -18
19277, -16, 373, 87, -5110, -86240, -4060, -568, 393, -12
19278, 718, 203, 212, 5600, -51450, 2310, -555, 382, -4
19279, -458, -406, 121, 14420, 34930, 10290, -558, 390, -1
19280, -214, -498, 391, 15330, 31570, 11760, -559, 387, -15
19281, -7, -30, 190, 17360, 31080, 15890, -562, 393, -4
19282, 547, 477, 152, 20860, 70980, 24710, -574, 388, -15
19283, 192, 1595, 27, 26040, 122360, 29890, -576, 388, -7
19284, -2774, 3109, -639, 10710, 92400, 15050, -568, 385, -9
19285, -2201, 2332, 47, -16520, 15820, 3850, -571, 390, -10
19286, -1224, 2060, -329, -27300, -129220, -5810, -573, 390, -10
19287, -310, 1786, -171, -49210, -116130, 1050, -571, 403, -15
19288, 789, 1019, 123, -41020, -127400, 5740, -564, 397, -15
19289, -108, 0, 18, -35490, -43610, 16100, -574, 399, -18
19290, -655, -317, 127, -40530, -43820, 14070, -568, 399, -24
19291, -126, -350, 72, -34790, -106470, 8890, -580, 406, -25
19292, 501, 46, 75, -35350, -72800, 13020, -571, 405, -36
19293, 1295, 111, 538, 7070, -700, 17360, -571, 412, -28
19294, 2020, 759, 429, 30170, 74480, 24080, -573, 408, -30
19295, -797, 2193, -15, 40320, 171920, 22470, -582, 406, -16
19296, -2928, 2321, -814, 33950, 186340, 9170, -583, 393, -19
19297, -3133, 601, 391, 35140, 77910, -21910, -577, 391, -7
19298, 1082, 1669, 868, 9170, -58170, -38570, -577, 396, -19
19299, 819, 2290, -463, 20160, -52640, -32970, -570, 399, -10
19300, 759, 760, -48, 16380, 71610, -18340, -564, 391, -7
19301, -627, -341, 362, 13090, 84560, -15400, -568, 403, -7
19302, -840, -518, 78, 13860, -19950, -22050, -573, 397, -18
19303, 635, 1114, 192, 8190, -67760, -19390, -567, 393, -9
19304, 487, 1298, -182, 9730, 21420, -11410, -573, 387, -16
19305, -17, 820, -11, 14350, 66990, -8050, -570, 393, -10
19306, -904, 249, 251, 5880, 77350, -12460, -568, 390, -21
19307, -586, 1746, 138, -8470, -25620, -27860, -558, 391, -6
19308, -731, 2375, -329, -10500, -30660, -30660, -556, 385, -18
19309, -416, 1300, 82, -16240, 7770, -30240, -558, 402, -19
19310, -563, 50, 59, -16100, -17080, -33040, -561, 397, -21
19311, -596, 88, 87, -24780, -40880, -35140, -553, 394, -19
19312, -334, 1851, -25, -34090, -79240, -38010, -547, 387, -30
19313, -1093, 1547, -322, -36120, -72590, -38570, -546, 399, -22
19314, -947, 897, 138, -39830, -87920, -44170, -546, 391, -37
19315, -1177, 39, 107, -41440, -133490, -53480, -546, 397, -42
19316, -16, 896, 500, -35140, -176400, -59570, -535, 403, -42
19317, 1974, 1265, 279, 8330, -124950, -61880, -541, 408, -45
19318, -572, 981, 104, 10500, 72520, -52990, -540, 393, -49
19319, -435, 721, -63, 33880, 55090, -52220, -532, 402, -39
19320, -390, -200, 588, 23590, 123200, -54250, -531, 400, -34
19321, 580, 10, 675, 20300, 84980, -51590, -525, 399, -27
19322, 314, 783, -385, 33670, 80080, -44240, -526, 391, -22
19323, 649, 631, -144, 33180, 184520, -26740, -520, 391, -22
19324, -149, 378, -7, 38850, 223860, -17150, -520, 396, -25
19325, -936, 30, 22, 35630, 213010, -15470, -522, 397, -16
19326, -1487, 3283, -526, 15470, 128030, -22470, -517, 391, -10
19327, -1428, 2937, -113, 3430, 77700, -26110, -519, 393, -9
19328, -1631, 960, -272, -15890, 28350, -28630, -517, 384, -21
19329, -1124, -116, 56, -21000, -63700, -34230, -519, 393, -22
19330, -486, 411, -361, -25130, -86870, -29120, -513, 384, -16
19331, 30, 1045, -244, -21350, -46970, -25410, -511, 379, -16
19332, -531, 220, 101, -21840, -39340, -28350, -507, 393, -37
19333, -1611, 58, -134, -32340, -61880, -34020, -510, 387, -31
19334, -628, 266, -157, -23870, -168630, -46550, -504, 379, -37
19335, -795, 1678, -131, -29260, -142660, -58100, -505, 394, -39
19336, -1059, 678, 390, -37310, -87010, -65730, -498, 379, -40
19337, -600, 522, 152, -17920, -180110, -79380, -490, 385, -49
19338, -375, 948, -86, -21280, -105070, -79660, -478, 381, -61
19339, 801, 1057, 81, 11130, -122430, -83510, -478, 384, -54
19340, -25, -53, -44, 27300, 57120, -69090, -483, 382, -67
19341, -371, -671, 158, 24710, 57960, -69090, -478, 384, -54
19342, -998, -566, -74, 17290, 10850, -72450, -463, 381, -54
19343, 254, 129, 184, 16800, -23520, -74130, -468, 381, -57
19344, 444, 945, -474, 27580, 98910, -55440, -457, 384, -55
19345, 373, 141, -46, 30170, 175980, -47110, -459, 379, -45
19346, -596, -322, -138, 28280, 193200, -43960, -462, 376, -45
19347, -838, 267, -17, 22470, 193760, -48090, -460, 373, -25
19348, -1408, 1380, -391, 23100, 191310, -52990, -454, 372, -31
19349, -1406, 2558, -697, 20650, 247240, -60340, -457, 375, -9
19350, -894, 1175, -271, 10780, 238840, -64470, -447, 373, -13
19351, -1788, 203, -267, -3500, 191730, -69090, -444, 361, -9
19352, -408, 712, -245, 2380, 59920, -75880, -447, 363, -3
19353, -14, 1646, -363, -7350, 96670, -68600, -445, 363, -12
19354, -243, 1155, -328, 3220, 146650, -55510, -445, 357, 1
19355, -1384, 488, -469, 1890, 101570, -55300, -435, 349, 15
19356, -981, 69, -20, -6580, 33530, -61460, -430, 354, 4
19357, -1489, 879, -884, -17220, -14560, -60270, -429, 343, 3
19358, 98, 1516, -220, -18340, -5740, -52850, -426, 351, -4
19359, -1023, 1389, -465, -16800, -16520, -53550, -426, 339, -3
19360, -2707, 1403, -927, -38290, -8820, -58730, -420, 343, -10
19361, -2705, 856, -1486, -36190, -151760, -72730, -414, 346, -15
19362, -647, 663, -53, -36330, -237580, -79170, -411, 355, -33
19363, -69, 832, -412, -40740, -220360, -68880, -409, 336, -40
19364, -964, 225, -927, -44100, -174790, -61250, -409, 343, -52
19365, -643, 11, -33, -38920, -181650, -63350, -396, 337, -67
19366, -1757, 3, -1203, -42840, -179690, -62370, -394, 333, -72
19367, -401, 256, 447, -28630, -218750, -73780, -385, 325, -90
19368, 487, 169, 706, -6510, -224280, -88970, -396, 328, -91
19369, -1761, -115, -1105, -44730, -6720, -71960, -382, 327, -105
19370, 911, -186, 940, -5740, -130200, -84560, -388, 327, -114
19371, -1641, -167, -1201, -35350, 15960, -69090, -373, 315, -117
19372, 409, 192, 600, -13510, 12320, -62930, -367, 325, -124
19373, 944, 33, 264, -3080, 30450, -57120, -372, 316, -123
19374, -611, -154, -567, 2450, 51100, -51310, -363, 321, -126
19375, 60, -56, 35, 3150, 84630, -48510, -363, 316, -114
19376, -543, -140, -428, 9730, 97300, -50050, -357, 312, -120
19377, -268, -128, -571, 24150, 193410, -51730, -361, 309, -115
19378, -155, 179, -687, 28840, 279510, -47320, -357, 297, -90
19379, -461, 552, -1041, 43400, 318430, -47390, -361, 301, -70
19380, -340, 660, -1197, 47810, 421330, -45150, -351, 295, -42
19381, -139, 754, -1230, 62790, 479920, -45570, -357, 297, -13
19382, -901, 685, -1169, 69790, 520660, -45780, -357, 288, 19
19383, -1607, 652, -1358, 66220, 496860, -49980, -369, 285, 51
19384, -2640, 682, -1590, 64680, 423010, -62790, -364, 286, 57
19385, -3143, 641, -2314, 67970, 289870, -84140, -361, 285, 72
19386, -657, -146, -383, 73430, 211610, -103740, -364, 276, 67
19387, 201, -146, -542, 90160, 157010, -107940, -367, 277, 96
19388, 214, -111, -614, 87150, 195720, -102200, -370, 259, 109
19389, 23, -77, -624, 93590, 180600, -101430, -370, 256, 121
19390, -179, -185, -631, 97230, 163940, -102410, -363, 255, 126
19391, -625, -56, -805, 100730, 85610, -113050, -355, 240, 135
19392, -671, 66, -1069, 99890, 63000, -118090, -357, 232, 133
19393, -336, 3, -775, 104860, 29190, -124600, -354, 225, 142
19394, 1303, 106, -948, 116060, -10150, -132090, -349, 217, 148
19395, 587, 1832, -1144, -62650, 685930, 25830, -409, 235, 202
19396, -3997, 2329, -2669, -49210, -893200, 530670, -415, 259, 195
19397, 771, 990, -653, -31710, -109550, 33740, -412, 264, 195
19398, 3997, 1119, 1845, 62440, -162610, -184660, -405, 255, 205
19399, -1459, -330, -1913, -12530, 692230, 8190, -411, 258, 205
19400, -2720, 555, -1703, -25060, 547260, 49000, -415, 261, 211
19401, -288, -214, -842, 28700, -513030, -81340, -415, 256, 208
19402, 2646, 2250, 1364, -560, 73080, -4340, -405, 249, 207
19403, -1280, 10, -1316, -910, 206990, 22120, -415, 253, 210
19404, -3529, 484, -2311, -10780, 70490, -1190, -409, 256, 207
19405, -1606, 742, -1952, -49140, 77980, 9940, -418, 249, 213
19406, 968, 476, -411, -5880, -297430, -28350, -403, 244, 193
19407, 1275, 29, 883, -15820, 117810, 22400, -409, 252, 205
19408, -2531, 9, -1579, -12460, 124950, 10500, -400, 253, 199
19409, -1087, 59, -874, -3990, -143850, -21490, -403, 247, 201
19410, -1558, 573, -1287, -12320, 104930, 15750, -409, 255, 189
19411, -284, -71, -172, 15050, -127820, -12390, -400, 258, 196
19412, -1048, 165, -737, -7140, 139650, 14350, -405, 255, 198
19413, -1318, 279, -866, 8120, -73080, -12460, -406, 246, 202
19414, -555, 192, -325, 2310, 33320, 4900, -405, 256, 196
19415, -1035, 326, -1042, 2170, 4830, -980, -412, 264, 195
19416, -844, 420, -514, -1960, 3710, -350, -412, 255, 204
19417, -631, 363, -849, -280, -29540, -2240, -408, 250, 199
19418, -319, 188, -330, -700, 6300, 630, -400, 250, 193
19419, -809, 232, -667, 0, -24010, -2870, -403, 250, 196
19420, -661, 290, -736, -1190, 6090, 700, -406, 249, 193
19421, -602, 234, -495, 1750, -3570, -490, -408, 252, 196
19422, -733, 274, -666, 700, 7350, 770, -409, 259, 196
19423, -764, 302, -570, -210, 3080, 350, -415, 259, 199
19424, -607, 268, -558, -140, 70, -210, -409, 261, 190
19425, -779, 260, -670, -350, 3710, 350, -409, 255, 205
19426, -658, 259, -562, -280, -5530, -700, -411, 259, 202
19427, -768, 289, -686, -560, 5110, 700, -408, 261, 204
19428, -788, 270, -648, -350, 8470, 840, -412, 261, 205
19429, -650, 287, -621, 630, -9310, -1330, -409, 258, 199
19430, -725, 271, -648, -630, 8050, 980, -396, 249, 190
19431, -675, 299, -624, 560, -5740, -770, -405, 255, 196
19432, -803, 268, -656, -910, 7630, 840, -406, 255, 199
19433, -714, 254, -615, -560, 6930, 840, -415, 259, 198
19434, -673, 290, -641, 770, -5460, -770, -403, 258, 192
19435, -754, 266, -606, -420, 8050, 980, -408, 256, 199
19436, -725, 310, -704, 420, -6790, -980, -403, 261, 196
19437, -704, 266, -587, -560, 5670, -840, -412, 250, 198
19438, -689, 260, -559, -490, 5180, 560, -402, 256, 193
19439, -737, 298, -706, 350, -4340, -630, -402, 249, 193
19440, -698, 267, -572, -280, 4620, 490, -406, 252, 199
19441, -759, 291, -708, 280, -3010, -490, -408, 255, 196
19442, -732, 291, -691, 210, -1610, -280, -411, 255, 201
19443, -671, 277, -573, -70, 1750, 210, -399, 256, 195
19444, -777, 292, -701, -70, 420, 0, -412, 264, 193
19445, -673, 276, -587, -140, -980, -280, -403, 259, 189
19446, -757, 278, -696, -140, 840, 0, -405, 256, 192
19447, -774, 282, -688, -210, 3150, 350, -402, 256, 199
19448, -667, 288, -592, 210, -2730, -490, -406, 252, 184
19449, -775, 279, -685, -350, 3500, 350, -399, 250, 205
19450, -658, 280, -601, 280, -3920, -630, -409, 264, 199
19451, -754, 272, -662, 420, -4130, -630, -408, 255, 201
19452, -763, 278, -655, -350, 5250, 630, -415, 258, 204
19453, -683, 289, -631, 350, -4970, -700, -406, 252, 198
19454, -750, 269, -646, -490, 5040, 560, -408, 258, 201
19455, -672, 285, -633, 420, -5460, -770, -408, 258, 195
19456, -697, 294, -645, 420, -4900, -700, -400, 253, 195
19457, -740, 274, -630, -420, 5250, 560, -405, 256, 192
19458, -699, 287, -655, 350, -4900, -770, -412, 256, 201
19459, -716, 268, -615, -350, 4550, 490, -409, 256, 205
19460, -708, 289, -659, 350, -3990, -630, -414, 252, 198
19461, -725, 289, -671, 210, -3360, -490, -403, 265, 202
19462, -703, 273, -605, -350, 3290, 350, -403, 252, 196
19463, -725, 283, -671, 210, -2730, -420, -403, 253, 195
19464, -692, 276, -599, -210, 2800, 210, -405, 264, 196
19465, -740, 287, -674, -140, 1820, 140, -406, 261, 207
19466, -743, 282, -675, 70, -1120, -210, -406, 256, 205
19467, -680, 276, -602, -70, 630, 0, -405, 247, 196
19468, -744, 281, -670, 0, 70, 0, -406, 255, 207
19469, -681, 282, -603, 0, 140, -70, -414, 258, 202
19470, -680, 282, -609, 70, -980, -280, -399, 252, 198
19471, -749, 277, -666, -210, 1470, 140, -408, 255, 201
19472, -675, 283, -609, 210, -1540, -280, -406, 262, 201
19473, -750, 279, -660, -140, 2170, 210, -403, 250, 202
19474, -682, 285, -616, 140, -1960, -350, -399, 247, 198
19475, -682, 284, -622, 140, -2450, -420, -408, 258, 201
19476, -742, 275, -650, -280, 2870, 280, -411, 259, 196
19477, -686, 285, -627, 280, -2660, -420, -412, 252, 199
19478, -741, 277, -646, -210, 3150, 350, -402, 261, 204
19479, -693, 285, -633, -210, 3150, 350, -412, 259, 196
19480, -696, 284, -637, 210, -2800, -420, -411, 256, 192
19481, -727, 277, -634, -280, 3150, 280, -406, 262, 198
19482, -704, 285, -641, 210, -2590, -490, -402, 256, 195
19483, -723, 277, -632, -280, 2870, 210, -405, 262, 202
19484, -715, 277, -627, -210, 2590, 210, -415, 250, 198
19485, -715, 284, -650, 70, -2030, -350, -402, 252, 198
19486, -711, 279, -624, -210, 2310, 140, -402, 252, 202
19487, -720, 284, -652, 70, -1750, -280, -409, 250, 195
19488, -706, 279, -622, -140, 1820, 140, -405, 259, 198
19489, -701, 279, -621, -140, 1470, 70, -399, 256, 204
19490, -728, 281, -653, 140, -840, -140, -405, 252, 201
19491, -700, 281, -621, -70, 980, 0, -405, 253, 199
19492, -731, 280, -654, 0, -420, -140, -406, 256, 198
19493, -695, 281, -654, 0, 70, -70, -405, 256, 199
19494, -695, 282, -621, -70, 140, -70, -406, 261, 193
19495, -735, 279, -654, -70, 350, 0, -408, 259, 202
19496, -694, 282, -623, 0, -210, -140, -409, 255, 193
19497, -734, 280, -652, -70, 770, 0, -403, 261, 204
19498, -735, 279, -649, -70, 980, 70, -396, 259, 198
19499, -695, 282, -626, 140, -840, -210, -409, 264, 205
19500, -733, 278, -648, -140, 1330, 70, -403, 256, 199
19501, -696, 282, -628, 70, -1050, -210, -393, 256, 199
19502, -731, 279, -645, -140, 1470, 140, -405, 259, 198
19503, -731, 279, -644, -70, 1470, 140, -405, 258, 195
19504, -702, 282, -634, 140, -1190, -210, -405, 262, 201
19505, -724, 278, -641, -140, 1540, 70, -409, 255, 195
19506, -703, 282, -634, 70, -1120, -280, -405, 252, 195
19507, -708, 281, -637, 70, -1190, -280, -402, 247, 196
19508, -720, 279, -637, -140, 1470, 70, -403, 264, 193
19509, -709, 281, -639, 140, -1050, -140, -409, 261, 195
19510, -716, 280, -636, -140, 1400, 70, -405, 247, 198
19511, -713, 281, -641, 140, -980, -210, -402, 267, 204
19512, -715, 281, -642, 70, -770, -210, -403, 250, 187
19513, -712, 280, -632, -70, 1050, 70, -403, 262, 207
19514, -717, 280, -642, 0, -630, -210, -405, 253, 199
19515, -709, 280, -630, -70, 910, 0, -403, 264, 202
19516, -720, 281, -643, 140, -350, -140, -408, 249, 195
19517, -721, 280, -644, 0, -210, -70, -408, 247, 190
19518, -706, 281, -632, -70, 490, -70, -402, 255, 193
19519, -722, 281, -644, 0, -140, -70, -409, 258, 198
19520, -706, 281, -631, -70, 280, -70, -400, 261, 195
19521, -706, 281, -632, 0, 140, -140, -408, 252, 190
19522, -723, 280, -643, 0, 280, -70, -412, 258, 190
19523, -706, 281, -632, 0, 0, -70, -414, 250, 198
19524, -722, 281, -642, 0, 420, 0, -403, 259, 192
19525, -706, 282, -632, 0, -70, -140, -406, 265, 195
19526, -708, 281, -633, 0, -210, -70, -406, 262, 187
19527, -721, 280, -641, -70, 560, 0, -412, 255, 193
19528, -708, 282, -635, 0, -210, -140, -412, 252, 198
19529, -720, 280, -640, 0, 560, 0, -405, 261, 195
19530, -707, 281, -635, 70, -280, -140, -409, 255, 183
19531, -710, 281, -635, 70, -350, -140, -396, 261, 190
19532, -719, 280, -639, 0, 560, 0, -409, 247, 199
19533, -711, 281, -636, 0, -280, -140, -400, 255, 204
19534, -717, 281, -638, -70, 560, 0, -402, 261, 198
19535, -716, 281, -637, 0, 560, 0, -402, 253, 204
19536, -713, 281, -637, 0, -210, -70, -409, 258, 199
19537, -715, 281, -636, -70, 630, 0, -394, 255, 202
19538, -713, 281, -638, 0, -210, -140, -414, 253, 196
19539, -715, 281, -637, -70, 490, 0, -405, 259, 202
19540, -714, 280, -636, -70, 560, -70, -417, 261, 186
19541, -715, 281, -640, 0, -140, -140, -412, 258, 201
19542, -714, 281, -637, 0, 420, -70, -408, 261, 195
19543, -716, 281, -640, 0, -140, -70, -403, 253, 201
19544, -713, 281, -635, 0, 350, -70, -400, 259, 201
19545, -712, 281, -636, 0, 280, -70, -414, 255, 199
19546, -716, 280, -639, 0, 70, -70, -408, 267, 189
19547, -712, 280, -636, 0, 280, 0, -406, 259, 198
19548, -716, 281, -640, -70, 140, -70, -400, 253, 208
19549, -717, 281, -638, 0, 140, 0, -412, 258, 202
19550, -712, 281, -636, -70, 210, -70, -412, 255, 187
19551, -716, 280, -640, -70, 210, -70, -403, 258, 211
19552, -712, 281, -635, 0, 210, -70, -411, 253, 202
19553, -717, 281, -639, 0, 140, -70, -403, 253, 198
19554, -717, 281, -638, -70, 210, -70, -405, 252, 198
19555, -712, 281, -636, -70, 70, -70, -408, 246, 195
19556, -717, 280, -638, 0, 210, -70, -408, 253, 202
19557, -713, 281, -636, 0, 0, -70, -409, 253, 202
19558, -716, 280, -638, -70, 0, -140, -408, 255, 202
19559, -715, 281, -638, -70, 210, 0, -406, 261, 196
19560, -713, 281, -637, 0, 70, -140, -403, 270, 195
19561, -716, 280, -638, 0, 210, -70, -393, 256, 202
19562, -713, 281, -637, -70, 70, -70, -408, 259, 199
19563, -713, 280, -636, 0, 140, -70, -406, 259, 199
19564, -715, 281, -637, -70, 210, 0, -414, 261, 202
19565, -713, 281, -637, 70, 0, -70, -403, 258, 202
19566, -714, 281, -636, 0, 210, -70, -409, 256, 201
19567, -714, 281, -637, 0, 70, -70, -408, 252, 196
19568, -714, 280, -637, 0, 70, -70, -411, 262, 198
19569, -714, 281, -636, 0, 210, 0, -406, 262, 192
19570, -715, 280, -637, 0, 70, -70, -402, 255, 196
19571, -714, 280, -638, 0, 210, -70, -411, 261, 198
19572, -714, 280, -638, 0, 280, -70, -396, 258, 196
19573, -715, 281, -637, 0, 70, -70, -408, 250, 202
19574, -714, 280, -637, 0, 210, -70, -402, 258, 205
19575, -714, 281, -638, 0, 140, -70, -411, 255, 198
19576, -714, 281, -636, 0, 210, -70, -412, 255, 195
19577, -714, 281, -637, 0, 210, -70, -399, 262, 198
19578, -715, 281, -637, 0, 70, -70, -403, 253, 196
19579, -714, 280, -636, -70, 140, -70, -405, 256, 205
19580, -715, 281, -636, -70, 140, -140, -402, 261, 199
19581, -714, 280, -637, 0, 140, -70, -400, 261, 199
19582, -713, 280, -638, 0, 140, -70, -403, 258, 192
19583, -715, 280, -638, 0, 210, -70, -408, 267, 199
19584, -714, 281, -637, 0, 140, -70, -403, 247, 195
19585, -714, 280, -638, 0, 140, -70, -406, 256, 199
19586, -714, 280, -637, -70, 210, -70, -400, 255, 205
19587, -714, 281, -637, 0, 140, -70, -412, 262, 202
19588, -714, 281, -638, 0, 140, -70, -409, 258, 196
19589, -713, 281, -636, 0, 210, -70, -412, 256, 198
19590, -715, 281, -638, 0, 140, -70, -409, 249, 207
19591, -715, 281, -638, 0, 210, -70, -412, 264, 198
19592, -714, 281, -638, 70, 140, 0, -402, 255, 195
19593, -715, 281, -638, 0, 210, -70, -412, 259, 195
19594, -715, 281, -637, 0, 140, -70, -408, 252, 196
19595, -714, 280, -637, 0, 140, -70, -402, 261, 201
19596, -714, 280, -637, -70, 210, -70, -402, 255, 199
19597, -714, 281, -637, -70, 140, -70, -403, 261, 196
19598, -715, 281, -637, 0, 210, -70, -399, 253, 199
19599, -714, 281, -637, 0, 140, -70, -408, 256, 205
19600, -714, 281, -637, 0, 140, -70, -403, 255, 198
19601, -714, 281, -636, 0, 210, -70, -400, 256, 193
19602, -714, 281, -637, -70, 140, -70, -402, 261, 207
19603, -714, 280, -637, 0, 140, -70, -396, 255, 193
19604, -715, 281, -637, 0, 140, -70, -405, 252, 202
19605, -714, 281, -639, -70, 140, -70, -399, 258, 210
19606, -713, 281, -636, 70, 140, -70, -408, 258, 199
19607, -714, 281, -636, 0, 140, -70, -402, 249, 202
19608, -714, 280, -636, 0, 210, -70, -406, 256, 208
19609, -715, 280, -638, 0, 140, -70, -405, 250, 204
19610, -715, 281, -638, 0, 140, -70, -402, 252, 195
19611, -715, 281, -637, -70, 280, -70, -405, 259, 201
19612, -714, 281, -637, 70, 140, -70, -396, 255, 202
19613, -714, 281, -637, 0, 140, -70, -408, 256, 211
19614, -714, 281, -637, -70, 140, -70, -405, 253, 190
19615, -714, 281, -637, 0, 210, -70, -405, 259, 198
19616, -714, 281, -637, -70, 70, -70, -408, 256, 198
19617, -714, 281, -637, -70, 140, -70, -400, 249, 198
19618, -715, 281, -638, -70, 140, -70, -396, 252, 201
19619, -713, 280, -637, 0, 210, -70, -414, 259, 208
19620, -714, 281, -638, -70, 140, -70, -400, 261, 198
19621, -714, 281, -637, 0, 210, -70, -411, 264, 204
19622, -714, 280, -638, 0, 210, -70, -405, 259, 199
19623, -714, 280, -637, -70, 210, -70, -406, 259, 198
19624, -714, 281, -637, 0, 140, -70, -408, 256, 199
19625, -714, 280, -637, 0, 210, -70, -412, 261, 192
19626, -714, 281, -638, 0, 140, -70, -409, 261, 195
19627, -714, 281, -638, 70, 210, -70, -409, 252, 195
19628, -715, 281, -637, 0, 210, -70, -402, 252, 189
19629, -715, 281, -638, 0, 210, -70, -411, 252, 192
19630, -714, 280, -637, 0, 140, -70, -403, 246, 195
19631, -715, 282, -637, 0, 210, -70, -408, 258, 201
19632, -714, 281, -637, -70, 140, -70, -405, 250, 193
19633, -715, 281, -637, 0, 140, -70, -409, 256, 202
19634, -715, 281, -637, 0, 210, -70, -412, 262, 201
19635, -714, 281, -637, 0, 210, -70, -406, 264, 199
19636, -715, 281, -637, 0, 140, 0, -403, 253, 195
19637, -714, 281, -638, 0, 210, -70, -406, 255, 190
19638, -714, 281, -637, 0, 140, 0, -403, 249, 192
19639, -714, 281, -636, 70, 140, -70, -403, 258, 196
19640, -714, 281, -636, 0, 140, -70, -403, 256, 211
19641, -714, 281, -637, 0, 210, -70, -409, 255, 199
19642, -714, 280, -638, 0, 140, -70, -402, 253, 199
19643, -715, 281, -637, 0, 140, -70, -403, 241, 198
19644, -714, 281, -637, -70, 140, -70, -394, 256, 187
19645, -714, 281, -637, 0, 140, -70, -405, 256, 205
19646, -714, 281, -638, 0, 140, -70, -402, 259, 192
19647, -714, 280, -637, 0, 140, 0, -397, 255, 195
19648, -714, 281, -638, 0, 140, -70, -403, 255, 190
19649, -713, 281, -637, 70, 140, -70, -399, 262, 198
19650, -714, 281, -637, 0, 140, -70, -414, 252, 198
19651, -714, 281, -637, 0, 140, -70, -415, 256, 201
19652, -714, 281, -637, 0, 140, -70, -411, 258, 195
19653, -715, 281, -636, 0, 140, -70, -408, 259, 195
19654, -714, 281, -636, -70, 140, -70, -409, 267, 201
19655, -714, 280, -636, 0, 140, -70, -408, 244, 190
19656, -713, 281, -637, -70, 70, -70, -420, 259, 205
19657, -714, 281, -637, 0, 140, -70, -400, 249, 204
19658, -714, 281, -637, 0, 140, -70, -411, 259, 187
19659, -714, 281, -636, 0, 140, -70, -403, 255, 198
19660, -714, 281, -637, 0, 140, -70, -402, 253, 193
19661, -714, 281, -637, 0, 140, -70, -402, 259, 199
19662, -715, 281, -637, 70, 210, -70, -405, 262, 195
19663, -715, 281, -638, 0, 140, -70, -409, 264, 192
19664, -715, 281, -637, 0, 210, -70, -405, 262, 204
19665, -714, 281, -638, 70, 210, -70, -406, 250, 190
19666, -714, 281, -638, 0, 140, -70, -406, 268, 210
19667, -715, 280, -637, -70, 140, -70, -397, 258, 204
19668, -714, 281, -639, 0, 140, -70, -409, 250, 202
19669, -715, 281, -636, 0, 140, -70, -412, 261, 189
19670, -714, 280, -638, 0, 140, -70, -405, 261, 196
19671, -714, 280, -637, 0, 140, 0, -396, 261, 202
19672, -714, 281, -638, 0, 140, -70, -406, 264, 195
19673, -714, 281, -638, -70, 140, -70, -408, 255, 199
19674, -713, 282, -636, -70, 210, -70, -403, 259, 196
19675, -714, 281, -637, 0, 140, -70, -399, 246, 199
19676, -714, 280, -637, 0, 210, -70, -409, 259, 199
19677, -714, 280, -637, 0, 210, -70, -408, 253, 199
19678, -714, 281, -638, 0, 140, -70, -405, 256, 198
19679, -714, 281, -637, 0, 140, -70, -393, 253, 208
19680, -715, 281, -638, -70, 70, -70, -412, 255, 196
19681, -714, 281, -638, -140, 70, -70, -406, 259, 202
19682, -715, 281, -637, 0, 140, -70, -400, 255, 204
19683, -714, 281, -637, 0, 210, -70, -405, 264, 199
19684, -715, 281, -637, 0, 140, -70, -412, 250, 190
19685, -714, 280, -638, -70, 140, -70, -409, 252, 198
19686, -715, 281, -637, 0, 140, -70, -402, 256, 187
19687, -716, 281, -638, 0, 140, -70, -403, 262, 199
19688, -714, 281, -637, 0, 140, -70, -406, 259, 199
19689, -714, 281, -638, 0, 140, -140, -406, 259, 196
19690, -714, 281, -636, 0, 140, -70, -412, 253, 196
19691, -714, 281, -637, 0, 140, -70, -415, 259, 198
19692, -714, 281, -637, 0, 140, -70, -409, 252, 192
19693, -714, 281, -638, 0, 140, -70, -411, 262, 196
19694, -714, 281, -637, 0, 70, -70, -414, 253, 202
19695, -714, 281, -637, 0, 140, -70, -403, 253, 195
19696, -714, 281, -637, 0, 280, -70, -405, 252, 196
19697, -714, 281, -637, 0, 140, -70, -405, 259, 204
19698, -714, 281, -638, -70, 140, -70, -402, 252, 201
19699, -714, 281, -637, -70, 210, 0, -403, 255, 201
19700, -714, 281, -637, -70, 140, 0, -400, 247, 201
19701, -714, 281, -637, 0, 140, -70, -405, 252, 208
19702, -714, 281, -637, 70, 210, -70, -405, 253, 201
19703, -714, 281, -638, 0, 140, -70, -402, 249, 201
19704, -715, 280, -637, 0, 140, -70, -411, 259, 201
19705, -714, 281, -638, 0, 140, -70, -412, 256, 207
19706, -714, 280, -637, 0, 210, -70, -400, 258, 207
19707, -714, 281, -637, -70, 140, -70, -408, 250, 211
19708, -714, 281, -636, 70, 140, -70, -406, 250, 199
19709, -714, 281, -637, 0, 140, -70, -412, 255, 202
19710, -714, 281, -638, 0, 140, -70, -403, 252, 202
19711, -713, 281, -638, 0, 140, -70, -400, 249, 202
19712, -714, 281, -638, 0, 140, -70, -412, 255, 202
19713, -715, 280, -637, 0, 140, -70, -408, 255, 186
19714, -714, 281, -637, 0, 140, -70, -399, 253, 195
19715, -714, 281, -637, -70, 70, -70, -406, 250, 205
19716, -714, 281, -638, 0, 140, -70, -397, 253, 198
19717, -714, 281, -637, 0, 140, 0, -406, 256, 204
19718, -714, 281, -637, 0, 140, -70, -408, 256, 193
19719, -714, 281, -637, 70, 140, -70, -403, 261, 207
19720, -714, 281, -637, 0, 140, -70, -408, 255, 190
19721, -714, 280, -637, 70, 140, -70, -412, 264, 204
19722, -714, 281, -637, 0, 210, -70, -409, 261, 195
19723, -714, 281, -637, 0, 210, -140, -411, 258, 198
19724, -714, 281, -637, 0, 210, -70, -408, 252, 204
19725, -714, 281, -637, -70, 140, -70, -405, 265, 202
19726, -715, 281, -637, 0, 140, -70, -393, 258, 201
19727, -714, 281, -636, -70, 140, -70, -396, 258, 207
19728, -715, 281, -637, 0, 140, -70, -403, 259, 193
19729, -713, 281, -638, -70, 70, -70, -409, 258, 204
19730, -714, 281, -637, -70, 140, -70, -405, 250, 199
19731, -714, 281, -637, 0, 140, -70, -403, 256, 204
19732, -714, 282, -637, 0, 140, -70, -405, 259, 192
19733, -715, 281, -637, -70, 140, -70, -411, 256, 199
19734, -712, 280, -635, 0, 210, -70, -405, 250, 196
19735, -713, 281, -637, 0, 140, -70, -405, 253, 199
19736, -714, 281, -638, 0, 210, -70, -402, 247, 198
19737, -713, 281, -636, 0, 210, -70, -406, 262, 202
19738, -715, 280, -638, 0, 210, -70, -403, 258, 202
19739, -713, 280, -637, 0, 70, -70, -405, 255, 193
19740, -714, 281, -637, 70, 140, -70, -406, 262, 202
19741, -714, 281, -637, 0, 140, 0, -406, 256, 196
19742, -714, 280, -637, 0, 140, -70, -403, 258, 192
19743, -714, 280, -638, 0, 140, -70, -399, 256, 202
19744, -714, 280, -637, 70, 140, -70, -411, 261, 205
19745, -714, 281, -638, -140, 140, -70, -411, 253, 205
19746, -715, 280, -637, 0, 70, -70, -411, 261, 201
19747, -714, 280, -638, 0, 140, -70, -405, 255, 201
19748, -714, 282, -637, -70, 210, -70, -411, 252, 196
19749, -715, 281, -637, -70, 140, -70, -397, 249, 204
19750, -714, 281, -636, 0, 140, -70, -408, 253, 196
19751, -715, 280, -637, 0, 140, -70, -403, 253, 184
19752, -715, 281, -637, 0, 140, -70, -397, 261, 196
19753, -715, 281, -637, 0, 140, -70, -406, 258, 201
19754, -715, 282, -637, 70, 140, -70, -403, 253, 195
19755, -714, 281, -638, 70, 210, -70, -400, 252, 207
19756, -715, 281, -637, 0, 140, -70, -399, 250, 196
19757, -714, 280, -637, -70, 140, -70, -405, 253, 204
19758, -714, 281, -637, 0, 140, -70, -405, 259, 193
19759, -714, 281, -637, 0, 210, -70, -399, 262, 198
19760, -714, 281, -637, 0, 140, -70, -414, 255, 201
19761, -714, 280, -638, 0, 140, -70, -403, 250, 184
19762, -714, 281, -637, -70, 140, -70, -393, 253, 196
19763, -714, 281, -637, 0, 140, -70, -402, 261, 195
19764, -714, 281, -638, -70, 140, -70, -412, 256, 204
19765, -715, 280, -638, 0, 210, -70, -408, 252, 202
19766, -714, 281, -637, -70, 140, -70, -406, 264, 198
19767, -714, 281, -638, 0, 140, -70, -411, 253, 192
19768, -714, 281, -637, 70, 210, -70, -406, 250, 189
19769, -715, 280, -636, 0, 210, -70, -403, 250, 195
19770, -714, 281, -637, 0, 210, -70, -408, 261, 195
19771, -714, 281, -638, 0, 210, -70, -402, 256, 192
19772, -714, 281, -639, 0, 210, 0, -403, 261, 201
19773, -714, 282, -638, 70, 210, -70, -399, 252, 189
19774, -715, 281, -637, 0, 140, -70, -405, 256, 202
19775, -715, 281, -638, -70, 140, -70, -405, 262, 192
19776, -715, 282, -636, 0, 140, -70, -400, 256, 190
19777, -714, 280, -637, 70, 140, -140, -403, 265, 192
19778, -714, 281, -637, 0, 140, -70, -412, 252, 195
19779, -714, 281, -637, 0, 210, -70, -394, 244, 205
19780, -714, 281, -637, -70, 210, -70, -403, 255, 201
19781, -714, 281, -637, 0, 70, -70, -405, 250, 204
19782, -714, 280, -637, 0, 140, -70, -405, 262, 195
19783, -714, 281, -637, -70, 140, -70, -402, 262, 196
19784, -714, 281, -637, 0, 140, -70, -399, 247, 193
19785, -715, 281, -637, 0, 210, -70, -412, 258, 195
19786, -714, 281, -637, 0, 140, -70, -405, 247, 192
19787, -714, 280, -635, 0, 140, 0, -412, 259, 199
19788, -714, 281, -637, 0, 210, -70, -408, 259, 198
19789, -714, 281, -638, 0, 140, -70, -411, 264, 202
19790, -714, 282, -636, 0, 140, -70, -400, 258, 195
19791, -714, 281, -636, 0, 140, -70, -412, 259, 207
19792, -714, 281, -637, 0, 210, -70, -409, 253, 187
19793, -713, 281, -638, 0, 210, -70, -409, 252, 189
19794, -714, 281, -637, 0, 140, -70, -408, 255, 195
19795, -715, 281, -636, 0, 210, 0, -405, 258, 198
19796, -714, 281, -637, 0, 140, -70, -397, 255, 198
19797, -714, 280, -637, 0, 210, 0, -409, 250, 198
19798, -714, 281, -638, 0, 140, -70, -405, 262, 192
19799, -714, 281, -638, -70, 140, -70, -408, 259, 190
19800, -714, 281, -637, 0, 210, -70, -402, 252, 196
19801, -714, 281, -637, 0, 140, -70, -415, 264, 198
19802, -714, 280, -638, 0, 140, -70, -403, 258, 192
19803, -714, 281, -637, 0, 140, -70, -406, 262, 198
19804, -714, 280, -638, 0, 140, 0, -403, 262, 192
19805, -715, 281, -636, -70, 140, -70, -411, 258, 204
19806, -714, 281, -638, -70, 210, -70, -399, 259, 198
19807, -714, 281, -637, -70, 140, -70, -400, 252, 207
19808, -714, 281, -638, 0, 140, -70, -400, 259, 192
19809, -714, 281, -637, 70, 210, -70, -406, 250, 198
19810, -713, 281, -637, 0, 210, -70, -409, 261, 195
19811, -714, 281, -637, -70, 210, -70, -406, 262, 201
19812, -714, 281, -637, 0, 210, -70, -409, 258, 192
19813, -714, 281, -637, 0, 210, -70, -400, 256, 196
19814, -714, 281, -637, 0, 140, -70, -408, 256, 189
19815, -714, 280, -637, 0, 140, -70, -396, 256, 198
19816, -714, 281, -637, 0, 140, -70, -402, 258, 190
19817, -714, 281, -638, 0, 140, -70, -412, 261, 207
19818, -715, 281, -638, 0, 210, -140, -409, 250, 192
19819, -714, 281, -638, 0, 210, -70, -403, 252, 193
19820, -715, 281, -637, -70, 70, -70, -391, 264, 195
19821, -714, 282, -637, 0, 140, -70, -408, 262, 193
19822, -714, 281, -636, 0, 210, -70, -405, 256, 199
19823, -714, 281, -637, -70, 210, -70, -412, 259, 199
19824, -714, 281, -638, 0, 140, -140, -400, 261, 193
19825, -714, 282, -636, 0, 140, -70, -403, 256, 198
19826, -714, 280, -638, 0, 210, -70, -400, 253, 199
19827, -714, 281, -636, 0, 210, -70, -411, 258, 198
19828, -714, 280, -637, -70, 140, -70, -399, 258, 202
19829, -715, 282, -637, -70, 210, -70, -412, 255, 204
19830, -714, 281, -637, 0, 70, -70, -409, 262, 193
19831, -715, 281, -637, 0, 140, -70, -399, 256, 202
19832, -714, 281, -636, -70, 140, -70, -402, 261, 202
19833, -714, 281, -636, 0, 210, 0, -409, 259, 193
19834, -715, 281, -637, 0, 210, -70, -405, 259, 196
19835, -714, 281, -637, 70, 140, -70, -402, 255, 195
19836, -714, 281, -637, 0, 210, -70, -400, 259, 201
19837, -715, 281, -637, 0, 210, -70, -402, 256, 199
19838, -714, 281, -637, 0, 70, -70, -403, 255, 202
19839, -714, 281, -637, 0, 210, -70, -405, 258, 199
19840, -714, 281, -637, -70, 140, -70, -409, 255, 207
19841, -714, 281, -637, 0, 210, -70, -418, 256, 201
19842, -714, 281, -638, 0, 140, -70, -403, 255, 198
19843, -713, 281, -636, 0, 140, 0, -408, 256, 195
19844, -715, 281, -637, 0, 210, 0, -409, 252, 193
19845, -714, 281, -637, 0, 140, -70, -400, 258, 207
19846, -714, 282, -638, 0, 210, -70, -409, 255, 204
19847, -714, 281, -638, -70, 210, -70, -402, 249, 202
19848, -714, 281, -637, 0, 140, -70, -405, 259, 195
19849, -715, 281, -638, -70, 140, -70, -408, 259, 196
19850, -714, 281, -637, 0, 140, -70, -400, 252, 201
19851, -713, 281, -638, 0, 140, -70, -405, 255, 195
19852, -714, 281, -637, 0, 140, -70, -403, 259, 205
19853, -715, 281, -639, 0, 210, -70, -396, 255, 198
19854, -714, 281, -637, 0, 140, -70, -397, 265, 193
19855, -714, 281, -637, 0, 140, -70, -403, 249, 201
19856, -714, 281, -637, 70, 140, 0, -403, 258, 198
19857, -714, 281, -636, 0, 140, -70, -400, 255, 183
19858, -714, 281, -638, 70, 210, -70, -400, 259, 195
19859, -715, 280, -637, 0, 140, -70, -405, 250, 195
19860, -715, 281, -636, 0, 210, -70, -409, 253, 198
19861, -714, 281, -637, 0, 210, -70, -403, 250, 201
19862, -714, 281, -637, 0, 140, -70, -402, 261, 192
19863, -715, 280, -637, 0, 140, -70, -411, 252, 196
19864, -714, 281, -637, 0, 210, -70, -405, 252, 198
19865, -715, 281, -637, 0, 140, 0, -399, 258, 202
19866, -714, 280, -636, -70, 140, -70, -414, 262, 207
19867, -714, 281, -637, -70, 140, -140, -400, 265, 187
19868, -715, 281, -637, -70, 140, -70, -408, 247, 196
19869, -714, 281, -637, -70, 140, -70, -393, 250, 196
19870, -714, 281, -636, 70, 210, -70, -409, 255, 205
19871, -715, 281, -638, 0, 140, -70, -403, 261, 198
19872, -714, 281, -638, -70, 140, -70, -408, 259, 201
19873, -714, 281, -637, 0, 210, -70, -405, 264, 202
19874, -714, 281, -636, 70, 140, 0, -405, 261, 196
19875, -714, 281, -637, 0, 70, -70, -409, 262, 198
19876, -715, 282, -636, 0, 140, -70, -402, 262, 195
19877, -715, 282, -637, 0, 140, -70, -397, 256, 201
19878, -714, 282, -638, 70, 70, 0, -408, 256, 198
19879, -714, 281, -637, 70, 140, -140, -391, 256, 202
19880, -714, 282, -638, -70, 140, -70, -409, 259, 196
19881, -714, 282, -637, 0, 140, -70, -408, 256, 199
19882, -714, 281, -637, 0, 140, -70, -406, 262, 202
19883, -715, 281, -637, 0, 210, -70, -408, 253, 198
19884, -715, 281, -638, 0, 140, -70, -408, 259, 202
19885, -714, 281, -637, -70, 210, -70, -400, 243, 202
19886, -713, 282, -636, 70, 140, -70, -409, 264, 196
19887, -715, 281, -638, 70, 210, -70, -402, 259, 205
19888, -715, 281, -638, 70, 70, -70, -399, 255, 202
19889, -714, 281, -637, 0, 210, -70, -408, 256, 208
19890, -714, 281, -636, 0, 210, -140, -403, 253, 204
19891, -715, 281, -636, 70, 140, -70, -400, 243, 201
19892, -714, 281, -636, 0, 140, -70, -402, 256, 198
19893, -714, 280, -637, 0, 140, 0, -405, 258, 202
19894, -714, 280, -636, 0, 210, -70, -402, 261, 195
19895, -714, 282, -637, 0, 210, -70, -406, 258, 202
19896, -714, 281, -637, 0, 210, -70, -397, 259, 201
19897, -714, 281, -637, 0, 70, -70, -403, 259, 190
19898, -714, 281, -637, -70, 210, -70, -402, 256, 196
19899, -714, 281, -637, 0, 140, -70, -406, 265, 199
19900, -715, 281, -637, 0, 210, -70, -399, 256, 198
19901, -715, 281, -637, 0, 140, -70, -406, 264, 189
19902, -714, 282, -637, 0, 140, -70, -403, 258, 189
19903, -714, 281, -637, 0, 140, -70, -405, 255, 201
19904, -714, 281, -636, -70, 140, -70, -400, 255, 198
19905, -714, 281, -636, 0, 140, -70, -406, 259, 198
19906, -714, 281, -637, 0, 140, -70, -406, 253, 198
19907, -714, 281, -637, 70, 140, -70, -403, 256, 199
19908, -715, 281, -637, 0, 140, -70, -391, 261, 198
19909, -714, 281, -637, 0, 140, -70, -408, 253, 198
19910, -714, 281, -638, -70, 140, -70, -406, 247, 193
19911, -715, 281, -637, -70, 210, 0, -406, 261, 201
19912, -714, 281, -637, 0, 140, -140, -408, 253, 196
19913, -714, 281, -637, 70, 140, -70, -400, 258, 201
19914, -714, 281, -637, 0, 210, -70, -397, 258, 195
19915, -714, 281, -637, 0, 70, -70, -408, 253, 192
19916, -714, 281, -638, 0, 140, -70, -405, 259, 198
19917, -714, 281, -638, 0, 210, 0, -409, 255, 201
19918, -714, 281, -637, -70, 140, -70, -399, 253, 193
19919, -714, 281, -637, 0, 210, -70, -399, 256, 199
19920, -715, 281, -637, 0, 140, -70, -411, 259, 192
19921, -715, 281, -637, 0, 140, -70, -411, 258, 193
19922, -714, 281, -636, 0, 140, -70, -400, 256, 195
19923, -714, 282, -637, 0, 210, -70, -402, 255, 199
19924, -716, 282, -638, 0, 140, -70, -403, 241, 192
19925, -715, 282, -638, -70, 70, -70, -406, 256, 201
19926, -714, 281, -638, -70, 210, -70, -400, 247, 193
19927, -714, 281, -638, 0, 140, -70, -394, 259, 208
19928, -716, 282, -637, -70, 140, -70, -411, 259, 201
19929, -713, 282, -636, 0, 140, -70, -408, 253, 199
19930, -715, 282, -637, 0, 350, -70, -405, 259, 199
19931, -715, 280, -637, 0, 70, -70, -408, 256, 198
19932, -713, 281, -636, 0, 140, -70, -403, 256, 196
19933, -715, 281, -636, -70, 210, -70, -406, 267, 207
19934, -714, 281, -637, 0, 140, -70, -411, 252, 196
19935, -714, 281, -637, 0, 140, -70, -403, 247, 198
19936, -714, 281, -637, 0, 280, -70, -406, 253, 214
19937, -714, 281, -637, -70, 210, -70, -411, 253, 195
19938, -714, 280, -637, 0, 140, 0, -405, 250, 195
19939, -713, 281, -638, 70, 140, -70, -412, 264, 202
19940, -714, 281, -637, -70, 210, -70, -402, 256, 193
19941, -714, 281, -637, 0, 140, -70, -406, 259, 193
19942, -714, 281, -637, -70, 210, -70, -405, 259, 198
19943, -713, 281, -637, -70, 210, -70, -405, 247, 183
19944, -714, 281, -638, 0, 210, -70, -408, 247, 201
19945, -715, 281, -636, 0, 140, -70, -408, 255, 193
19946, -714, 281, -636, 0, 140, -70, -414, 255, 204
19947, -714, 281, -637, 0, 210, -70, -409, 249, 201
19948, -715, 281, -637, -70, 140, -70, -405, 261, 192
19949, -714, 281, -636, 0, 280, -70, -405, 244, 196
19950, -715, 281, -637, 0, 210, -140, -406, 258, 196
19951, -715, 281, -637, 0, 210, -70, -406, 255, 198
19952, -714, 280, -637, -70, 140, -70, -405, 261, 199
19953, -715, 282, -637, 0, 210, -70, -403, 258, 186
19954, -715, 281, -638, 70, 210, -70, -402, 261, 195
19955, -714, 281, -637, 0, 140, -70, -399, 261, 199
19956, -715, 281, -638, 0, 210, -70, -406, 253, 195
19957, -714, 281, -638, 0, 140, -70, -403, 261, 198
19958, -714, 281, -637, 0, 140, -70, -409, 265, 196
19959, -714, 281, -636, 0, 140, -70, -399, 256, 198
19960, -714, 281, -636, 0, 210, -70, -402, 250, 199
19961, -714, 281, -637, 70, 210, -70, -405, 256, 193
19962, -715, 280, -638, 70, 210, -70, -402, 256, 204
19963, -715, 281, -637, 0, 210, -140, -402, 253, 193
19964, -715, 280, -636, 0, 70, 0, -408, 253, 199
19965, -714, 281, -636, 0, 140, -70, -408, 253, 196
19966, -715, 281, -637, 0, 70, -70, -402, 267, 201
19967, -714, 281, -638, 0, 140, 0, -399, 250, 208
19968, -715, 282, -636, 0, 140, -70, -405, 259, 196
19969, -713, 281, -636, 0, 140, -70, -402, 247, 201
19970, -714, 281, -636, 0, 210, -70, -409, 255, 195
19971, -714, 281, -637, -70, 140, 0, -408, 255, 201
19972, -714, 281, -638, 0, 140, -70, -406, 253, 193
19973, -714, 282, -637, 0, 210, -70, -403, 259, 199
19974, -715, 281, -638, 0, 140, -70, -405, 261, 202
19975, -714, 281, -637, 0, 140, -70, -397, 261, 199
19976, -715, 280, -637, 70, 210, -70, -399, 258, 193
19977, -714, 281, -637, 70, 140, -70, -402, 252, 204
19978, -714, 281, -636, 0, 140, -70, -409, 261, 189
19979, -714, 281, -636, 0, 140, -70, -406, 255, 198
19980, -714, 281, -637, 0, 140, -70, -402, 270, 201
19981, -714, 282, -637, -70, 140, -70, -411, 250, 201
19982, -714, 281, -637, 0, 140, -70, -400, 259, 201
19983, -714, 281, -637, 0, 210, -70, -411, 256, 201
19984, -714, 281, -636, 0, 70, -70, -400, 261, 198
19985, -714, 282, -637, 70, 210, -70, -400, 253, 190
19986, -715, 281, -637, 0, 210, -70, -406, 255, 195
19987, -714, 281, -638, 70, 140, -70, -400, 256, 202
19988, -714, 281, -637, 0, 140, -140, -393, 255, 201
19989, -714, 281, -637, 0, 140, -70, -409, 262, 202
19990, -714, 281, -637, 0, 210, -70, -400, 256, 199
19991, -714, 281, -636, 0, 140, -70, -403, 247, 196
19992, -715, 281, -638, 0, 140, -70, -396, 259, 202
19993, -715, 282, -637, 0, 140, -70, -396, 259, 202
19994, -714, 281, -637, 0, 70, -70, -403, 259, 199
19995, -715, 281, -637, -70, 140, -70, -408, 253, 205
19996, -714, 281, -637, 0, 210, -70, -406, 259, 192
19997, -715, 281, -637, 70, 140, -140, -412, 261, 198
19998, -715, 282, -638, 0, 140, -70, -406, 265, 198
19999, -715, 281, -637, 0, 140, -70, -408, 259, 202
20000, -714, 281, -637, 0, 140, -70, -406, 256, 199
20001, -715, 281, -638, 0, 210, -70, -411, 258, 205
20002, -714, 281, -637, -70, 140, -70, -405, 259, 196
20003, -715, 281, -637, 0, 140, -70, -412, 259, 199
20004, -714, 281, -637, 0, 210, -70, -415, 262, 199
20005, -714, 281, -638, 0, 140, -70, -420, 250, 202
20006, -715, 281, -637, 70, 140, -70, -406, 256, 201
20007, -715, 281, -638, 0, 140, -70, -406, 255, 190
20008, -715, 281, -637, 0, 140, -70, -406, 255, 193
20009, -715, 281, -637, -70, 140, -70, -411, 262, 205
20010, -714, 280, -637, 0, 140, -70, -406, 255, 198
20011, -714, 280, -637, -70, 140, -70, -402, 250, 201
20012, -714, 281, -637, 0, 140, -70, -406, 252, 195
20013, -714, 282, -637, 70, 140, 0, -406, 265, 204
20014, -715, 282, -638, 0, 140, -70, -400, 253, 195
20015, -713, 281, -636, -70, 70, -140, -399, 259, 195
20016, -713, 281, -636, 0, 210, -70, -406, 256, 187
20017, -715, 281, -639, 0, 210, -70, -400, 249, 202
20018, -715, 281, -637, 0, 70, -140, -409, 250, 192
20019, -714, 281, -636, 0, 70, -70, -408, 255, 202
20020, -715, 281, -638, -70, 210, -70, -405, 258, 195
20021, -715, 281, -637, 0, 140, -70, -399, 256, 201
20022, -715, 280, -636, 0, 280, 0, -406, 255, 199
20023, -714, 281, -637, -70, 140, -70, -403, 270, 196
20024, -715, 281, -637, 0, 140, -70, -411, 247, 198
20025, -713, 281, -636, -70, 210, -70, -411, 261, 202
20026, -715, 281, -638, 0, 210, -70, -411, 259, 187
20027, -715, 281, -638, 70, 140, -70, -408, 256, 201
20028, -714, 282, -637, -70, 210, -70, -405, 258, 196
20029, -714, 282, -637, 0, 140, -70, -406, 256, 204
20030, -715, 281, -637, 0, 210, -70, -405, 255, 192
20031, -713, 281, -637, 0, 140, -70, -403, 265, 199
20032, -714, 280, -636, 0, 210, -70, -396, 256, 205
20033, -714, 282, -636, 0, 140, -70, -409, 258, 201
20034, -714, 281, -637, 0, 140, -70, -411, 262, 196
20035, -714, 281, -636, 0, 280, -70, -408, 261, 202
20036, -714, 281, -637, 70, 140, -70, -403, 250, 198
20037, -714, 281, -637, -70, 210, -70, -412, 247, 205
20038, -714, 281, -637, 0, 140, -70, -406, 252, 192
20039, -714, 281, -637, 0, 210, -70, -397, 252, 190
20040, -714, 281, -637, 0, 210, -70, -408, 258, 198
20041, -715, 281, -636, -70, 140, -70, -403, 256, 204
20042, -715, 281, -637, 0, 140, -70, -397, 259, 196
20043, -714, 281, -637, 0, 70, -70, -403, 255, 199
20044, -715, 281, -637, 0, 210, -70, -402, 258, 201
20045, -714, 281, -638, -70, 210, -70, -412, 264, 202
20046, -714, 281, -637, 0, 70, -70, -411, 259, 198
20047, -714, 281, -637, 0, 140, -70, -400, 253, 196
20048, -714, 280, -637, -70, 140, -70, -411, 250, 192
20049, -715, 281, -637, -70, 210, -70, -406, 250, 184
20050, -714, 281, -636, 0, 140, -70, -400, 256, 183
20051, -715, 281, -638, 0, 140, -70, -405, 256, 198
20052, -714, 282, -637, 0, 210, -70, -402, 259, 189
20053, -714, 281, -637, -70, 140, -70, -406, 256, 202
20054, -714, 281, -637, 0, 140, -70, -414, 258, 198
20055, -715, 281, -638, 70, 210, 0, -415, 250, 205
20056, -714, 282, -637, -70, 140, -70, -403, 256, 192
20057, -714, 281, -636, -70, 210, -70, -411, 258, 193
20058, -714, 281, -637, 0, 140, -70, -405, 264, 189
20059, -714, 281, -637, 0, 140, -70, -405, 250, 192
20060, -714, 281, -637, 0, 140, -70, -400, 249, 204
20061, -714, 281, -638, 0, 140, -70, -405, 255, 193
20062, -715, 281, -637, 0, 140, -70, -411, 253, 195
20063, -714, 281, -638, 0, 140, -70, -414, 256, 207
20064, -714, 281, -637, 0, 140, -70, -411, 255, 193
20065, -714, 281, -637, 0, 210, -70, -399, 256, 201
20066, -714, 280, -638, -70, 210, -70, -409, 259, 199
20067, -714, 281, -638, 0, 140, -70, -400, 258, 190
20068, -714, 281, -637, -70, 210, -70, -403, 264, 190
20069, -715, 281, -637, -70, 140, 0, -411, 256, 205
20070, -714, 282, -637, 0, 210, -70, -406, 256, 199
20071, -715, 282, -637, -70, 140, -70, -397, 261, 204
20072, -714, 281, -638, 0, 70, -70, -405, 252, 199
20073, -714, 282, -638, 0, 210, 0, -402, 250, 199
20074, -714, 281, -637, 0, 140, -70, -405, 256, 196
20075, -714, 281, -636, 0, 140, -70, -409, 262, 193
20076, -714, 281, -637, 0, 140, -70, -405, 264, 195
20077, -714, 281, -636, 70, 140, 0, -415, 253, 204
20078, -715, 281, -637, 0, 140, -70, -409, 255, 199
20079, -714, 281, -637, 0, 210, -70, -400, 258, 201
20080, -715, 281, -636, 70, 140, -70, -408, 256, 205
20081, -715, 281, -637, 0, 140, -70, -402, 256, 210
20082, -714, 281, -637, 70, 140, -70, -405, 259, 202
20083, -714, 281, -637, 0, 140, -70, -403, 256, 205
20084, -713, 281, -637, 0, 210, -70, -403, 262, 213
20085, -714, 281, -638, 0, 210, -70, -394, 252, 201
20086, -715, 281, -638, 0, 210, -70, -412, 259, 201
20087, -714, 280, -638, 0, 140, -70, -406, 255, 198
20088, -714, 281, -637, 0, 140, -70, -411, 258, 199
20089, -715, 281, -638, 0, 140, -70, -405, 256, 202
20090, -715, 281, -637, 0, 140, -70, -400, 250, 192
20091, -714, 281, -636, 0, 210, -70, -403, 256, 202
20092, -715, 281, -638, 0, 140, -70, -399, 259, 186
20093, -714, 281, -636, 0, 210, -70, -409, 252, 201
20094, -714, 282, -638, 0, 140, -70, -402, 259, 196
20095, -713, 281, -636, 0, 140, -70, -409, 255, 202
20096, -713, 281, -637, -70, 280, -70, -409, 261, 198
20097, -715, 281, -637, 70, 210, -70, -400, 265, 201
20098, -714, 281, -636, 0, 210, -70, -414, 253, 196
20099, -714, 281, -637, 0, 210, -140, -403, 261, 196
20100, -714, 281, -638, 0, 210, -70, -414, 259, 201
20101, -714, 281, -637, 0, 210, -70, -411, 259, 208
20102, -714, 281, -636, 70, 210, -70, -406, 253, 199
20103, -713, 282, -637, 0, 210, -70, -406, 250, 199
20104, -715, 282, -637, 0, 210, -70, -406, 255, 195
20105, -714, 281, -637, 0, 140, -70, -405, 255, 199
20106, -715, 281, -637, 0, 140, -70, -408, 253, 199
20107, -714, 281, -637, 0, 140, -70, -403, 253, 196
20108, -715, 281, -637, 0, 140, -70, -402, 261, 201
20109, -714, 282, -636, 0, 140, -70, -405, 264, 201
20110, -714, 281, -637, 0, 140, -70, -406, 253, 198
20111, -714, 280, -638, 0, 140, -70, -406, 259, 211
20112, -714, 281, -637, 0, 140, -70, -402, 258, 201
20113, -714, 281, -637, 70, 140, -70, -408, 261, 192
20114, -714, 281, -637, 70, 140, -70, -411, 259, 201
20115, -714, 281, -636, 0, 140, -70, -403, 255, 208
20116, -714, 281, -636, 0, 140, -70, -403, 253, 196
20117, -714, 282, -637, -70, 140, -70, -403, 253, 201
20118, -713, 281, -637, 0, 140, -70, -412, 258, 196
20119, -714, 281, -637, -70, 140, -70, -408, 259, 204
20120, -715, 281, -636, -70, 140, 0, -403, 265, 202
20121, -714, 281, -637, 70, 140, 0, -411, 259, 199
20122, -714, 281, -636, 0, 140, -70, -400, 261, 204
20123, -715, 281, -636, 0, 140, -70, -399, 255, 207
20124, -715, 281, -637, 0, 140, -70, -409, 253, 201
20125, -714, 281, -638, 70, 210, -70, -411, 249, 210
20126, -714, 282, -638, 0, 140, -70, -409, 258, 190
20127, -714, 281, -638, 0, 140, -70, -406, 261, 216
20128, -714, 281, -637, 0, 140, -70, -402, 255, 205
20129, -714, 282, -636, 0, 140, -70, -402, 258, 202
20130, -715, 281, -637, 0, 140, -70, -403, 256, 199
20131, -715, 281, -637, -70, 210, -70, -405, 250, 210
20132, -714, 281, -637, 0, 140, -70, -408, 258, 192
20133, -715, 280, -637, 0, 140, 0, -403, 261, 205
20134, -714, 281, -638, 0, 140, 0, -412, 262, 195
20135, -715, 281, -637, 0, 210, -70, -411, 258, 195
20136, -714, 281, -636, -70, 140, -70, -396, 253, 198
20137, -714, 281, -636, 0, 210, -70, -408, 253, 202
20138, -714, 281, -637, 0, 70, -70, -412, 262, 198
20139, -714, 281, -638, -70, 140, -70, -418, 253, 201
20140, -714, 281, -637, -70, 210, -70, -411, 256, 199
20141, -715, 281, -636, 0, 140, -70, -406, 256, 210
20142, -714, 281, -636, 0, 210, -70, -400, 259, 196
20143, -714, 281, -637, 70, 210, -70, -405, 258, 196
20144, -715, 281, -637, 0, 70, 0, -403, 249, 201
20145, -714, 281, -637, 0, 140, 0, -408, 253, 183
20146, -715, 282, -637, 70, 140, -70, -403, 261, 193
20147, -714, 281, -637, 0, 210, -70, -411, 255, 201
20148, -713, 282, -637, 70, 140, -70, -414, 264, 207
20149, -714, 281, -637, 0, 210, -70, -411, 250, 198
20150, -714, 281, -637, 0, 210, -70, -397, 250, 202
20151, -714, 281, -637, 70, 210, -70, -406, 261, 207
20152, -714, 281, -637, 0, 140, -70, -408, 255, 198
20153, -714, 281, -637, 70, 140, -70, -400, 256, 204
20154, -714, 281, -636, -70, 140, -70, -399, 255, 195
20155, -714, 281, -637, 70, 210, -140, -406, 258, 199
20156, -714, 281, -637, 0, 210, -70, -403, 255, 195
20157, -714, 281, -637, 0, 210, 0, -405, 253, 207
20158, -714, 281, -637, 70, 140, -70, -411, 256, 199
20159, -715, 282, -637, 0, 140, -70, -406, 259, 195
20160, -714, 281, -637, 0, 140, 0, -403, 261, 201
20161, -714, 282, -636, 0, 140, -70, -406, 256, 207
20162, -714, 281, -637, 0, 140, -70, -411, 265, 207
20163, -714, 282, -638, 0, 140, -70, -402, 249, 202
20164, -714, 281, -636, 0, 210, -70, -400, 261, 204
20165, -715, 281, -637, 0, 210, -70, -400, 252, 189
20166, -715, 281, -636, 0, 210, -70, -400, 261, 202
20167, -714, 281, -637, -70, 210, 0, -400, 261, 211
20168, -714, 282, -636, 0, 210, -70, -420, 259, 201
20169, -714, 281, -637, 0, 140, -70, -412, 256, 202
20170, -715, 281, -637, 0, 140, -70, -402, 250, 204
20171, -714, 281, -637, 0, 140, -70, -403, 261, 202
20172, -715, 281, -637, 0, 140, -70, -409, 259, 199
20173, -715, 281, -637, -70, 140, -70, -400, 261, 201
20174, -714, 281, -637, -70, 210, -70, -411, 265, 192
20175, -714, 281, -636, -70, 70, 0, -396, 252, 201
20176, -714, 281, -637, 0, 70, -70, -406, 256, 193
20177, -715, 282, -636, -70, 140, -70, -403, 259, 199
20178, -715, 282, -637, 0, 140, -70, -394, 255, 201
20179, -715, 281, -637, 0, 140, -70, -406, 252, 214
20180, -714, 281, -637, 70, 210, -70, -405, 261, 196
20181, -714, 281, -637, 0, 140, -70, -400, 249, 202
20182, -714, 281, -637, 0, 210, -70, -403, 259, 211
20183, -714, 282, -637, 0, 140, -70, -399, 253, 199
20184, -714, 282, -636, 70, 140, 0, -409, 255, 204
20185, -714, 281, -637, 0, 140, -70, -408, 249, 202
20186, -715, 281, -637, 70, 210, -70, -396, 250, 205
20187, -714, 281, -636, 0, 210, -70, -406, 255, 193
20188, -714, 282, -637, 0, 140, -70, -403, 261, 207
20189, -714, 282, -637, 0, 140, -70, -400, 252, 192
20190, -714, 281, -637, 0, 140, -70, -411, 244, 204
20191, -715, 281, -637, 70, 210, -70, -408, 252, 202
20192, -714, 281, -637, 0, 140, -70, -408, 252, 195
20193, -715, 281, -637, -70, 210, -70, -402, 258, 199
20194, -714, 281, -637, 0, 140, -70, -406, 259, 199
20195, -714, 281, -637, 0, 210, -70, -411, 258, 213
20196, -715, 281, -637, 0, 140, -70, -408, 252, 198
20197, -714, 281, -636, -70, 140, -70, -405, 256, 195
20198, -715, 281, -636, -70, 140, -70, -405, 253, 202
20199, -714, 281, -637, 70, 210, -70, -400, 261, 207
20200, -715, 281, -637, 0, 140, -70, -396, 258, 199
20201, -714, 281, -638, 0, 210, -70, -403, 259, 202
20202, -715, 282, -636, 0, 140, -70, -414, 258, 201
20203, -714, 281, -637, -70, 140, -70, -397, 261, 205
20204, -714, 281, -637, 0, 210, -70, -409, 256, 198
20205, -715, 282, -637, 0, 140, -70, -403, 255, 210
20206, -714, 281, -637, -70, 140, -70, -402, 253, 202
20207, -714, 281, -638, -70, 210, -70, -409, 259, 204
20208, -714, 281, -636, 0, 140, 0, -409, 255, 198
20209, -714, 281, -636, 0, 70, -70, -406, 255, 202
20210, -715, 281, -637, 0, 210, -70, -411, 253, 201
20211, -714, 281, -637, 0, 210, -70, -402, 256, 198
20212, -714, 281, -636, 0, 140, -70, -411, 256, 195
20213, -715, 281, -636, 0, 140, -70, -403, 252, 199
20214, -714, 280, -637, 0, 210, -70, -400, 252, 195
20215, -714, 281, -636, 0, 140, -70, -402, 262, 199
20216, -714, 280, -638, 0, 210, -70, -402, 259, 204
20217, -714, 281, -638, 0, 140, -70, -408, 256, 195
20218, -714, 281, -637, 0, 70, -70, -412, 255, 199
20219, -714, 281, -638, -70, 140, -70, -402, 259, 202
20220, -714, 280, -637, 0, 140, -70, -417, 255, 193
20221, -715, 281, -637, 70, 140, -70, -411, 259, 201
20222, -714, 281, -636, 0, 140, -70, -403, 258, 199
20223, -714, 281, -637, 0, 140, -70, -400, 262, 207
20224, -714, 281, -638, 70, 140, -70, -417, 250, 201
20225, -714, 281, -637, 0, 140, -70, -402, 256, 201
20226, -714, 281, -636, 0, 140, -70, -403, 250, 211
20227, -714, 281, -637, 70, 140, -70, -403, 259, 202
20228, -715, 282, -636, -70, 140, -70, -409, 253, 201
20229, -714, 281, -636, 0, 140, -70, -412, 253, 210
20230, -715, 281, -637, 70, 210, -70, -411, 256, 201
20231, -715, 281, -637, 0, 210, -140, -409, 258, 196
20232, -714, 282, -636, 0, 210, -70, -405, 258, 189
20233, -715, 282, -637, 0, 140, -140, -403, 255, 202
20234, -714, 281, -637, 70, 140, -70, -400, 253, 202
20235, -715, 282, -638, 70, 140, -70, -406, 261, 193
20236, -714, 281, -638, 0, 140, -70, -403, 256, 198
20237, -715, 281, -637, 0, 210, -70, -412, 255, 193
20238, -714, 281, -636, 0, 210, -70, -406, 259, 195
20239, -714, 281, -637, -70, 140, -70, -412, 262, 204
20240, -714, 281, -637, 70, 140, -70, -394, 253, 204
20241, -714, 281, -636, 70, 210, -140, -403, 255, 189
20242, -714, 281, -637, -70, 140, 0, -397, 252, 199
20243, -714, 281, -637, 0, 140, -70, -402, 252, 202
20244, -715, 281, -637, 0, 140, -70, -412, 255, 195
20245, -714, 280, -637, 0, 140, -70, -402, 255, 210
20246, -714, 282, -636, 0, 140, -70, -405, 253, 198
20247, -715, 281, -637, 0, 210, -70, -405, 259, 201
20248, -714, 280, -637, 0, 140, -70, -409, 253, 195
20249, -715, 282, -636, 0, 210, -70, -405, 252, 201
20250, -715, 281, -636, 0, 210, -70, -400, 252, 201
20251, -713, 281, -637, -70, 140, -70, -411, 250, 184
20252, -714, 281, -637, -70, 70, -70, -409, 255, 198
20253, -715, 281, -636, 0, 140, -70, -403, 256, 201
20254, -714, 281, -637, 0, 140, -70, -400, 255, 199
20255, -714, 281, -637, 0, 140, -70, -400, 252, 199
20256, -715, 281, -638, -70, 140, -70, -408, 250, 193
20257, -714, 281, -637, -70, 140, -70, -402, 255, 198
20258, -714, 281, -636, 0, 140, -70, -405, 256, 210
20259, -714, 281, -637, -70, 140, -70, -405, 265, 205
20260, -714, 281, -638, 0, 140, -70, -406, 262, 189
20261, -714, 281, -636, 0, 210, -70, -409, 259, 204
20262, -715, 282, -637, 0, 140, -70, -400, 259, 198
20263, -714, 281, -638, 0, 140, -70, -405, 264, 201
20264, -714, 280, -637, 0, 140, -70, -405, 261, 193
20265, -714, 280, -636, -70, 140, 0, -409, 264, 202
20266, -715, 281, -637, 0, 140, -70, -406, 256, 198
20267, -715, 281, -638, 70, 70, -70, -408, 255, 196
20268, -714, 281, -637, 70, 210, -70, -406, 256, 196
20269, -715, 281, -638, -70, 140, -140, -399, 258, 199
20270, -713, 281, -636, 0, 140, -70, -405, 252, 193
20271, -713, 282, -637, 70, 140, -70, -406, 250, 204
20272, -714, 281, -637, 0, 140, -70, -414, 250, 196
20273, -715, 281, -637, 0, 210, -70, -408, 249, 204
20274, -714, 282, -637, -70, 210, -70, -409, 250, 198
20275, -714, 281, -636, 0, 140, -70, -403, 252, 201
20276, -714, 281, -636, 0, 210, -70, -403, 258, 199
20277, -715, 281, -637, 0, 140, -140, -412, 255, 199
20278, -714, 280, -637, 0, 140, -70, -412, 262, 196
20279, -714, 281, -637, 0, 70, -70, -406, 264, 201
20280, -714, 281, -637, 0, 140, -70, -409, 256, 196
20281, -714, 280, -637, 70, 140, -70, -412, 252, 207
20282, -715, 281, -637, 70, 140, -70, -417, 258, 196
20283, -714, 281, -636, 0, 140, -70, -403, 250, 192
20284, -715, 281, -637, 70, 210, -70, -414, 255, 198
20285, -714, 281, -637, 0, 140, -70, -405, 259, 201
20286, -715, 281, -637, 0, 210, -70, -414, 259, 193
20287, -714, 280, -637, 0, 210, -70, -405, 258, 192
20288, -714, 281, -638, 0, 210, -70, -402, 252, 205
20289, -714, 281, -637, 0, 140, -70, -402, 259, 204
20290, -714, 282, -637, 0, 140, -70, -409, 255, 199
20291, -715, 281, -637, -70, 140, -70, -405, 262, 198
20292, -715, 282, -637, -70, 140, 0, -397, 258, 195
20293, -714, 281, -637, 0, 140, -70, -409, 253, 196
20294, -715, 282, -637, 0, 210, -70, -408, 258, 196
20295, -715, 282, -636, 0, 210, -70, -414, 268, 207
20296, -714, 282, -636, -70, 140, -70, -394, 253, 195
20297, -715, 281, -637, 0, 140, -70, -409, 262, 198
20298, -714, 281, -638, 0, 140, -70, -405, 253, 192
20299, -714, 281, -637, 0, 140, -70, -406, 253, 196
20300, -714, 281, -637, 70, 140, -70, -408, 249, 195
20301, -714, 281, -637, 0, 210, -70, -409, 256, 208
20302, -714, 281, -637, 0, 210, -70, -409, 258, 204
20303, -714, 281, -637, 0, 140, -70, -405, 252, 207
20304, -714, 281, -637, 0, 210, -70, -405, 255, 199
20305, -714, 281, -637, 0, 140, -70, -406, 255, 199
20306, -715, 281, -637, 0, 140, -70, -411, 258, 198
20307, -715, 281, -637, 0, 140, -70, -397, 250, 202
20308, -714, 281, -636, 0, 140, -70, -408, 255, 202
20309, -715, 281, -637, 0, 140, -70, -405, 261, 208
20310, -714, 281, -636, 0, 70, -70, -402, 259, 204
20311, -714, 281, -636, -70, 70, -70, -402, 261, 196
20312, -715, 281, -636, -70, 210, -70, -406, 247, 199
20313, -714, 281, -637, 0, 70, -70, -408, 264, 202
20314, -714, 281, -637, 0, 140, -70, -399, 255, 205
20315, -714, 282, -638, -70, 70, -70, -402, 259, 207
20316, -715, 282, -637, -140, 70, -70, -408, 250, 199
20317, -714, 281, -638, -70, -70, -70, -406, 262, 208
20318, -714, 281, -637, -140, 0, -70, -409, 261, 187
20319, -714, 281, -637, -70, -70, -70, -408, 238, 199
20320, -715, 281, -637, -140, 0, -70, -405, 259, 204
20321, -714, 280, -636, -140, 0, -140, -405, 259, 201
20322, -715, 281, -637, -70, 70, -70, -409, 261, 204
20323, -714, 280, -635, -70, 70, -70, -399, 258, 205
20324, -715, 280, -635, 0, 280, -70, -400, 255, 202
20325, -714, 280, -637, 0, 350, -70, -408, 255, 195
20326, -714, 282, -637, 70, 280, 0, -411, 256, 198
20327, -715, 281, -637, 0, 350, -70, -399, 255, 201
20328, -715, 281, -637, 0, 210, -70, -400, 258, 196
20329, -714, 282, -637, 0, 280, -70, -412, 262, 199
20330, -715, 281, -636, 0, 210, -70, -411, 255, 205
20331, -715, 282, -637, 0, 210, -70, -408, 258, 211
20332, -714, 282, -637, 0, 210, -70, -405, 256, 193
20333, -714, 281, -638, 70, 140, -70, -409, 255, 195
20334, -715, 281, -636, 70, 210, -70, -406, 265, 196
20335, -715, 280, -637, 0, 210, -70, -414, 247, 199
20336, -715, 281, -637, 0, 210, -70, -405, 258, 190
20337, -714, 282, -637, 70, 210, -70, -405, 247, 186
20338, -714, 281, -637, 0, 140, -70, -411, 256, 192
20339, -714, 281, -637, 70, 210, -70, -403, 259, 201
20340, -715, 281, -636, 0, 140, -70, -399, 261, 198
20341, -715, 282, -637, 0, 210, -70, -403, 247, 202
20342, -714, 281, -637, 0, 210, -70, -409, 255, 196
20343, -715, 281, -638, 0, 140, -70, -403, 261, 207
20344, -715, 282, -637, 0, 140, -70, -411, 261, 201
20345, -715, 281, -635, 70, 140, -70, -415, 258, 202
20346, -714, 281, -636, 70, 210, -70, -405, 249, 199
20347, -714, 281, -637, 0, 140, -70, -399, 256, 177
20348, -715, 281, -637, -70, 140, -70, -400, 256, 193
20349, -715, 281, -637, -70, 140, -70, -411, 256, 208
20350, -714, 281, -636, -70, 140, 0, -399, 261, 195
20351, -714, 280, -637, 0, 140, -70, -402, 264, 196
20352, -714, 281, -637, 0, 140, -70, -415, 261, 195
20353, -715, 281, -637, 0, 140, -70, -400, 259, 199
20354, -714, 281, -636, 0, 140, -70, -408, 258, 204
20355, -714, 281, -635, 0, 140, -70, -414, 247, 195
20356, -714, 281, -637, 0, 280, -70, -406, 264, 187
20357, -714, 281, -637, -70, 140, -70, -406, 256, 196
20358, -714, 281, -637, 0, 210, -70, -405, 256, 196
20359, -714, 280, -636, 0, 140, -70, -409, 259, 193
20360, -713, 281, -636, 0, 140, -70, -409, 264, 189
20361, -714, 281, -637, 0, 140, -70, -402, 258, 207
20362, -715, 281, -636, -70, 140, -70, -400, 255, 205
20363, -714, 282, -637, -70, 210, -70, -402, 261, 207
20364, -714, 281, -637, 70, 210, -70, -403, 258, 202
20365, -715, 281, -637, 0, 140, -70, -405, 253, 201
20366, -714, 281, -637, 70, 140, -70, -406, 255, 192
20367, -715, 281, -637, 0, 140, -70, -405, 252, 202
20368, -714, 281, -637, 0, 140, -70, -405, 261, 195
20369, -715, 281, -637, 70, 140, -70, -405, 255, 198
20370, -714, 280, -636, 0, 140, 0, -412, 261, 199
20371, -714, 281, -637, -70, 140, -70, -405, 247, 208
20372, -714, 280, -637, 0, 140, 0, -406, 255, 186
20373, -715, 280, -638, 0, 210, -70, -400, 256, 201
20374, -714, 281, -637, 70, 140, -70, -408, 256, 201
20375, -714, 281, -637, 0, 210, -70, -399, 256, 193
20376, -715, 281, -637, 0, 140, -70, -408, 258, 199
20377, -714, 282, -637, 0, 140, -70, -394, 255, 196
20378, -714, 281, -637, 70, 210, -70, -406, 262, 195
20379, -716, 281, -638, 0, 210, -70, -405, 262, 189
20380, -715, 281, -637, 0, 210, -70, -405, 259, 207
20381, -715, 281, -636, 0, 140, -70, -399, 261, 201
20382, -714, 281, -637, 0, 140, -70, -402, 259, 205
20383, -714, 281, -637, -70, 140, -70, -396, 250, 204
20384, -714, 280, -636, 0, 70, -70, -412, 252, 195
20385, -714, 281, -637, 70, 210, -70, -411, 249, 193
20386, -715, 282, -637, 0, 140, -70, -412, 265, 201
20387, -715, 281, -637, 0, 140, -70, -418, 255, 192
20388, -714, 281, -637, 0, 140, -70, -399, 258, 202
20389, -714, 281, -637, 0, 210, -70, -411, 258, 192
20390, -714, 281, -637, 0, 140, -70, -403, 261, 196
20391, -715, 282, -637, -70, 140, -70, -409, 250, 193
20392, -714, 281, -636, -70, 140, -70, -412, 258, 196
20393, -714, 281, -637, 70, 140, -70, -408, 255, 199
20394, -715, 282, -637, 0, 210, -70, -414, 250, 192
20395, -714, 281, -637, 0, 140, -70, -405, 258, 196
20396, -714, 281, -637, 0, 210, -70, -409, 255, 196
20397, -714, 281, -637, 0, 210, -70, -409, 258, 198
20398, -715, 281, -636, 0, 210, -70, -409, 255, 201
20399, -714, 282, -636, 0, 140, -70, -406, 258, 213
20400, -715, 281, -636, 0, 210, -140, -397, 261, 207
20401, -714, 282, -638, 140, 210, -70, -412, 256, 207
20402, -714, 281, -637, -70, 210, -70, -406, 262, 195
20403, -715, 281, -637, 0, 210, -70, -408, 264, 204
20404, -714, 281, -637, 0, 140, -70, -402, 252, 210
20405, -715, 281, -638, 0, 140, -70, -402, 255, 199
20406, -715, 281, -637, 0, 210, -70, -409, 259, 201
20407, -714, 281, -638, 70, 210, -70, -403, 264, 196
20408, -714, 281, -637, 70, 210, -70, -411, 262, 193
20409, -714, 281, -636, 0, 210, 0, -411, 256, 204
20410, -714, 281, -636, 0, 140, -70, -411, 249, 202
20411, -715, 282, -637, 0, 210, -70, -408, 259, 201
20412, -714, 281, -636, -70, 140, -70, -400, 255, 199
20413, -714, 282, -637, 0, 210, -70, -411, 264, 208
20414, -714, 281, -638, 0, 140, -70, -399, 258, 192
20415, -756, 280, -628, 280, 5530, 560, -396, 259, 199
20416, -706, 289, -620, 350, -3710, -490, -397, 253, 199
20417, -700, 298, -696, -140, 140, -70, -408, 256, 202
20418, -710, 280, -614, -210, 1470, 140, -400, 252, 202
20419, -714, 280, -670, 0, -1960, -350, -402, 259, 204
20420, -696, 275, -628, 70, 2380, 210, -403, 256, 204
20421, -732, 280, -624, 210, 420, -70, -409, 261, 202
20422, -714, 288, -647, -140, -700, -140, -400, 259, 198
20423, -711, 293, -654, -210, -70, -70, -408, 256, 205
20424, -740, 276, -648, -70, 700, 0, -405, 255, 198
20425, -704, 274, -627, 0, -210, -140, -399, 258, 205
20426, -712, 282, -642, 210, 560, 0, -406, 255, 192
20427, -710, 281, -630, 140, 630, 0, -406, 253, 198
20428, -729, 288, -649, -70, 770, 0, -405, 253, 198
20429, -716, 280, -636, 0, 490, -70, -399, 256, 202
20430, -713, 276, -633, 70, -70, -70, -399, 253, 201
20431, -724, 283, -643, 0, 1120, 70, -412, 255, 205
20432, -703, 284, -636, 210, -630, -210, -415, 258, 202
20433, -712, 281, -632, 0, 0, -70, -402, 262, 207
20434, -719, 282, -644, 0, 140, -70, -405, 256, 201
20435, -709, 281, -633, 70, 0, -70, -403, 264, 198
20436, -718, 279, -636, 0, 280, -70, -402, 264, 196
20437, -713, 283, -639, -70, 140, -70, -396, 258, 207
20438, -714, 281, -633, -70, 490, 0, -399, 259, 202
20439, -716, 278, -633, 0, 70, -70, -400, 262, 210
20440, -714, 282, -641, 0, 350, -70, -400, 252, 199
20441, -712, 280, -638, 70, -70, -70, -406, 255, 205
20442, -715, 282, -632, 0, 630, 0, -403, 246, 190
20443, -710, 281, -636, 0, 490, -70, -400, 262, 201
20444, -719, 279, -639, 70, 70, -70, -408, 262, 202
20445, -712, 281, -635, 0, 420, -70, -403, 258, 201
20446, -716, 282, -640, 0, 0, -70, -399, 252, 202
20447, -720, 281, -636, 0, 350, -70, -406, 265, 202
20448, -710, 281, -643, -70, -280, -70, -396, 258, 198
20449, -718, 283, -638, -70, 420, 0, -396, 262, 202
20450, -710, 280, -631, 0, -280, -140, -406, 255, 201
20451, -716, 280, -635, 70, 350, -70, -411, 258, 202
20452, -715, 282, -637, -70, -350, -140, -409, 244, 190
20453, -708, 283, -636, 0, -140, -140, -412, 256, 202
20454, -716, 279, -640, -70, 0, -70, -415, 258, 198
20455, -715, 279, -630, 0, 840, 0, -400, 261, 205
20456, -711, 279, -634, 140, 980, 0, -405, 256, 204
20457, -718, 283, -641, 70, 420, 0, -409, 255, 204
20458, -710, 284, -637, 70, 140, -70, -414, 258, 201
20459, -717, 283, -639, 0, 280, 0, -405, 262, 204
20460, -711, 280, -634, 0, 0, 0, -405, 252, 201
20461, -710, 281, -635, 0, -140, -140, -399, 253, 190
20462, -718, 282, -639, -70, 140, -70, -403, 253, 195
20463, -712, 279, -642, -140, -70, -140, -403, 253, 193
20464, -717, 285, -628, -70, 70, -70, -411, 259, 195
20465, -711, 277, -648, -210, -280, -140, -400, 259, 201
20466, -718, 285, -632, -280, -770, -140, -406, 262, 193
20467, -707, 282, -638, -210, -490, -140, -406, 253, 199
20468, -712, 277, -631, -140, 210, 0, -405, 261, 196
20469, -717, 275, -625, 0, 490, 0, -402, 255, 205
20470, -717, 279, -640, 70, 420, -70, -400, 253, 207
20471, -717, 284, -637, 0, 350, -70, -409, 252, 187
20472, -714, 284, -636, -70, -350, -140, -405, 259, 192
