Time [mS], AccX [mg],AccY [mg],AccZ [mg],GyroX [mdps],GyroY [mdps],GyroZ [mdps],MagX [mgauss],MagY [mgauss],MagZ [mgauss]
26868, -21, 997, 137, -980, 980, 3710, -355, 322, -28
26869, -16, 992, 138, -980, 280, 1470, -361, 319, -15
26870, -11, 991, 140, -1120, -140, 980, -355, 328, -25
26871, -13, 989, 136, -1260, -560, 420, -360, 318, -22
26872, -13, 991, 134, -840, -420, -1750, -358, 322, -15
26873, -8, 987, 133, -770, 70, -1960, -363, 322, -25
26874, -2, 986, 134, -910, 280, -1610, -358, 316, -18
26875, 2, 988, 137, -910, 1330, -1260, -352, 319, -19
26876, 0, 988, 136, -630, 2310, -2450, -367, 325, -37
26877, -17, 994, 134, 210, 3360, -6930, -351, 312, -39
26878, -25, 999, 137, 490, 3850, -10430, -366, 315, -31
26879, -23, 997, 139, 210, 5390, -14420, -349, 310, -28
26880, -13, 988, 137, -420, 6440, -14490, -349, 312, -30
26881, -20, 986, 129, -1610, 3780, -9800, -357, 313, -30
26882, -37, 993, 125, -1820, 2450, -12040, -355, 309, -33
26883, -19, 971, 120, -1540, 1680, -10080, -352, 313, -19
26884, -29, 977, 115, -840, 140, -5460, -340, 316, -39
26885, -27, 980, 118, -70, -1260, -2450, -351, 318, -27
26886, -18, 987, 131, 560, 1470, 0, -352, 316, -28
26887, -14, 980, 127, 630, 4270, 1680, -357, 315, -27
26888, -10, 968, 119, 560, 4480, 6300, -352, 312, -28
26889, -2, 967, 127, 350, 5460, 12390, -351, 313, -25
26890, 7, 950, 120, 1680, 7980, 20370, -354, 312, -31
26891, 31, 931, 104, 1400, 3360, 53620, -364, 318, -21
26892, 18, 931, 82, 1680, -5600, 76860, -364, 319, -19
26893, -109, 1096, 110, 4200, -13860, 72310, -366, 327, -15
26894, -54, 1062, 123, 3080, -21210, 47740, -367, 322, -28
26895, -28, 1087, 171, -5110, -4620, -980, -378, 334, -28
26896, 5, 1049, 187, -6440, -1960, -6930, -367, 330, -16
26897, -165, 1143, 194, -25060, -140, -38360, -378, 330, -24
26898, 153, 931, 167, -17570, 6930, -48650, -366, 328, -21
26899, -11, 919, 57, -10290, 7630, -33530, -358, 319, -27
26900, 31, 962, 141, -700, 1960, -5740, -364, 319, -28
26901, 14, 977, 146, -70, 2380, -2730, -360, 330, -27
26902, -7, 989, 134, 280, 3010, -2170, -363, 313, -21
26903, 0, 988, 135, 350, 3290, -1890, -361, 321, -28
26904, -10, 992, 124, 420, 3500, -1820, -364, 319, -18
26905, 0, 990, 115, 560, 4410, -1470, -355, 316, -25
26906, 10, 985, 116, 840, 5460, -1190, -366, 325, -28
26907, 4, 987, 107, 1120, 7000, -910, -361, 324, -16
26908, 9, 985, 108, 1400, 8610, -700, -360, 318, -27
26909, 6, 987, 105, 2100, 12250, -70, -364, 316, -18
26910, 1, 990, 101, 2380, 14070, 210, -363, 321, -22
26911, 7, 987, 105, 2730, 15820, 560, -361, 312, -28
26912, 5, 988, 98, 2940, 17710, 980, -363, 316, -18
26913, 24, 983, 101, 3430, 20300, 1330, -363, 310, -24
26914, 52, 980, 98, 4830, 28560, 2450, -369, 324, -21
26915, 52, 983, 96, 5740, 33950, 3080, -367, 330, -25
26916, 34, 987, 97, 6510, 38500, 3570, -361, 322, -12
26917, 3, 995, 92, 6860, 41160, 3920, -364, 321, -18
26918, -9, 998, 91, 6930, 42140, 4130, -361, 319, 0
26919, -25, 998, 89, 6790, 42770, 4270, -363, 319, -3
26920, -39, 1002, 83, 6510, 41930, 4270, -367, 325, 0
26921, -30, 1000, 86, 6230, 40740, 4270, -369, 316, -1
26922, -9, 998, 80, 6230, 40250, 4340, -366, 318, 7
26923, 52, 980, 84, 7420, 46340, 5040, -364, 316, -3
26924, 43, 979, 88, 8190, 50820, 5530, -369, 333, 13
26925, 14, 984, 84, 8750, 53830, 5880, -378, 325, 6
26926, 30, 985, 79, 9170, 56350, 6090, -373, 327, 15
26927, 45, 981, 80, 10080, 60480, 6300, -373, 324, 15
26928, -39, 996, 86, 10780, 65520, 6650, -376, 330, 24
26929, -74, 1013, 86, 10010, 61740, 6230, -366, 327, 25
26930, -127, 1027, 84, 8680, 55020, 5670, -378, 322, 28
26931, -123, 1023, 91, 7210, 47110, 4970, -369, 319, 30
26932, -132, 1018, 90, 5810, 40040, 4340, -378, 328, 22
26933, -101, 1002, 91, 3430, 25480, 3290, -378, 322, 33
26934, -84, 993, 94, 2800, 20650, 2940, -372, 330, 34
26935, -75, 986, 96, 2240, 16940, 2660, -372, 327, 30
26936, -51, 981, 104, 2030, 14490, 2450, -378, 318, 31
26937, -39, 996, 106, 1750, 10360, 2170, -366, 319, 31
26938, -12, 996, 109, 1610, 8890, 1820, -376, 325, 33
26939, -17, 999, 114, 1540, 8120, 1610, -370, 322, 31
26940, -27, 1003, 121, 1190, 5880, 1260, -372, 319, 34
26941, -24, 1000, 129, 770, 3220, 910, -379, 325, 33
26942, -17, 990, 132, 140, -1960, 70, -375, 321, 39
26943, -10, 981, 133, 70, -3920, -280, -375, 328, 31
26944, -2, 974, 137, 140, -4760, -560, -388, 322, 40
26945, 0, 973, 139, 420, -4970, -840, -379, 328, 33
26946, 4, 972, 145, 840, -4760, -1050, -382, 328, 33
26947, 4, 976, 153, 1470, -5110, -1610, -381, 321, 27
26948, 6, 981, 156, 1540, -5740, -1890, -375, 325, 45
26949, 10, 983, 158, 1610, -6160, -2170, -373, 325, 39
26950, 9, 983, 159, 1680, -6580, -2380, -375, 327, 37
26951, 20, 982, 162, 1960, -6020, -2870, -379, 325, 31
26952, 28, 982, 165, 2310, -4900, -3010, -370, 321, 28
26953, 29, 983, 164, 2590, -3430, -3010, -375, 316, 33
26954, 26, 980, 163, 2870, -1750, -3080, -366, 315, 37
26955, 10, 982, 161, 3150, -420, -3080, -378, 316, 36
26956, -14, 993, 154, 3290, 70, -3290, -372, 324, 37
26957, -10, 1002, 152, 3150, -770, -3430, -381, 324, 31
26958, 12, 1024, 132, 3220, 1330, -3430, -373, 316, 31
26959, 10, 994, 152, 3080, 3710, -2940, -369, 328, 31
26960, -42, 962, 150, 2940, -560, -3500, -376, 324, 39
26961, -33, 992, 140, 2240, -2940, -3640, -375, 322, 36
26962, 20, 1003, 123, 2310, -3010, -3850, -378, 325, 42
26963, -50, 994, 114, 2240, -140, -3150, -375, 324, 42
26964, -15, 985, 139, 2660, 1190, -3290, -378, 328, 36
26965, -9, 980, 129, 2870, 1050, -3220, -369, 312, 24
26966, -18, 983, 114, 2800, 70, -3150, -364, 321, 40
26967, -2, 989, 118, 3010, 980, -3500, -367, 322, 36
26968, 1, 995, 114, 2800, 70, -3500, -375, 318, 30
26969, 4, 998, 113, 3010, 1050, -3710, -358, 325, 31
26970, 48, 1002, 100, 3430, 2800, -3780, -369, 331, 34
26971, 0, 1008, 101, 3500, 4760, -3500, -370, 331, 48
26972, 48, 1030, 77, 3990, 7700, -3570, -370, 309, 34
26973, 22, 1002, 81, 3850, 10780, -2730, -375, 316, 37
26974, -69, 958, 66, 4410, 13160, -2240, -375, 322, 39
26975, -82, 943, 72, 5250, 13370, -2450, -366, 321, 39
26976, -36, 962, 96, 5880, 12320, -2310, -375, 315, 36
26977, -35, 1008, 78, 6510, 13440, -2240, -376, 327, 31
26978, 4, 1027, 103, 6300, 13440, -2100, -364, 315, 43
26979, -62, 1038, 97, 4550, 8960, -2450, -376, 327, 45
26980, -153, 1020, 81, 2800, 1540, -3220, -372, 315, 51
26981, -110, 975, 93, 840, -7420, -3990, -363, 324, 46
26982, -86, 980, 73, -70, -12530, -4410, -364, 322, 52
26983, -15, 984, 93, -210, -13930, -4480, -370, 322, 42
26984, -3, 973, 94, 1470, -9450, -3920, -369, 318, 43
26985, -33, 976, 80, 2170, -7280, -3640, -381, 315, 45
26986, -30, 989, 84, 2450, -6300, -3570, -369, 316, 28
26987, -63, 1006, 70, 2240, -6930, -3430, -361, 318, 40
26988, -82, 1012, 69, 70, -11620, -3150, -367, 316, 39
26989, -92, 1061, 49, -1330, -14070, -2730, -361, 319, 34
26990, -96, 1061, 38, -2590, -14910, -1960, -357, 307, 39
26991, -120, 1026, 37, -3500, -14700, -1120, -370, 324, 36
26992, -165, 989, 36, -4410, -15260, -280, -366, 316, 37
26993, -156, 976, 45, -5530, -18200, 980, -363, 321, 42
26994, -177, 994, 42, -6300, -20440, 2030, -366, 312, 39
26995, -187, 1023, 43, -7560, -23870, 3080, -369, 313, 33
26996, -185, 1075, 32, -9450, -28490, 4060, -364, 327, 27
26997, -114, 1107, 57, -11060, -32200, 4550, -372, 318, 37
26998, -115, 1022, 66, -13300, -34720, 4690, -372, 316, 24
26999, -122, 991, 58, -15260, -38220, 5600, -373, 319, 25
27000, -106, 990, 56, -17150, -40810, 6930, -363, 319, 19
27001, -86, 983, 69, -17920, -41090, 8190, -369, 322, 31
27002, -121, 984, 56, -17360, -36330, 10500, -360, 327, 15
27003, -170, 1027, 42, -17290, -34720, 11620, -370, 324, 13
27004, -120, 1043, 70, -17710, -34650, 12670, -376, 321, 19
27005, -138, 1047, 70, -18410, -35280, 13440, -369, 322, 4
27006, -140, 1029, 98, -20020, -38920, 14070, -378, 336, 15
27007, -147, 1041, 103, -24850, -53760, 14630, -372, 333, -1
27008, -167, 1036, 96, -26950, -60830, 15120, -369, 325, -1
27009, -202, 1014, 107, -28910, -68670, 15470, -369, 322, -9
27010, -233, 1016, 100, -30940, -78540, 15470, -373, 337, -15
27011, -171, 1013, 109, -32410, -86940, 15540, -373, 322, -24
27012, -92, 969, 137, -33180, -93870, 16030, -370, 327, -25
27013, -127, 958, 137, -33040, -96250, 16170, -378, 333, -31
27014, -112, 964, 163, -33810, -102830, 15960, -369, 334, -34
27015, -78, 986, 152, -34860, -110530, 15610, -378, 328, -39
27016, -50, 988, 172, -36680, -124110, 14070, -372, 325, -51
27017, 55, 971, 174, -37100, -128730, 13020, -372, 328, -66
27018, 164, 949, 187, -36330, -128100, 12390, -378, 337, -69
27019, 202, 930, 193, -34510, -121800, 12320, -375, 337, -82
27020, 207, 905, 207, -32270, -114240, 12460, -381, 334, -85
27021, 296, 882, 221, -27300, -98560, 12460, -381, 331, -81
27022, 310, 895, 228, -24640, -88270, 12460, -388, 337, -93
27023, 284, 918, 216, -22400, -78540, 12460, -384, 336, -105
27024, 311, 925, 228, -20230, -69510, 12320, -378, 340, -99
27025, 272, 938, 220, -18200, -60410, 12180, -393, 337, -111
27026, 191, 942, 232, -15820, -52220, 11200, -381, 333, -103
27027, 244, 934, 238, -15260, -50890, 10430, -385, 342, -103
27028, 282, 939, 225, -13720, -45710, 9800, -388, 343, -115
27029, 373, 914, 237, -11340, -35420, 9450, -391, 337, -117
27030, 346, 899, 242, -5950, -11410, 9450, -393, 331, -121
27031, 280, 908, 234, -4060, -3430, 9520, -385, 342, -126
27032, 256, 918, 231, -2590, 1890, 9450, -393, 346, -123
27033, 190, 945, 216, -1610, 5390, 8960, -397, 328, -121
27034, 166, 960, 217, -1050, 7140, 8120, -390, 328, -118
27035, 108, 958, 221, -1820, -350, 5600, -390, 342, -118
27036, 132, 966, 213, -2380, -3990, 4410, -397, 340, -127
27037, 175, 966, 217, -2590, -6300, 3640, -388, 345, -126
27038, 212, 963, 217, -2380, -5880, 3080, -391, 339, -114
27039, 213, 969, 214, -1820, -3150, 2730, -397, 343, -115
27040, 215, 969, 209, -490, 2240, 1960, -391, 346, -117
27041, 210, 944, 217, 140, 5460, 1540, -393, 343, -123
27042, 162, 926, 205, 700, 7420, 1050, -390, 343, -117
27043, 141, 906, 210, 1050, 6790, 420, -388, 339, -118
27044, 122, 936, 214, 840, -630, -1820, -387, 339, -129
27045, 150, 972, 211, 700, -3360, -2940, -384, 346, -126
27046, 207, 998, 228, 630, -4900, -4060, -384, 333, -120
27047, 188, 1017, 218, 490, -5390, -4970, -391, 342, -124
27048, 187, 993, 224, 140, -6650, -5880, -388, 343, -121
27049, 101, 946, 215, -770, -12040, -7770, -385, 334, -123
27050, 41, 947, 208, -1470, -17220, -8820, -393, 339, -115
27051, 53, 942, 213, -2030, -22890, -9590, -379, 336, -129
27052, 60, 955, 207, -2380, -25970, -10010, -388, 343, -130
27053, 57, 981, 211, -2660, -27580, -9940, -394, 334, -127
27054, 20, 990, 207, -4340, -35630, -10570, -385, 337, -132
27055, 30, 962, 201, -5320, -39830, -10990, -381, 340, -136
27056, 64, 969, 211, -5740, -41160, -11410, -393, 328, -136
27057, 103, 972, 224, -6160, -43750, -11830, -394, 333, -136
27058, 208, 964, 247, -6440, -46060, -12740, -379, 343, -141
27059, 218, 975, 243, -6020, -43190, -13020, -390, 334, -136
27060, 227, 972, 241, -5320, -39340, -13090, -388, 331, -142
27061, 204, 937, 237, -4200, -32900, -12810, -381, 333, -142
27062, 178, 903, 248, -2940, -26950, -12460, -391, 328, -153
27063, 200, 909, 254, -210, -13790, -11620, -384, 336, -151
27064, 172, 942, 254, 1120, -7350, -10990, -387, 336, -151
27065, 168, 954, 263, 2240, -1960, -10290, -378, 328, -144
27066, 142, 963, 266, 3150, 2380, -9870, -385, 330, -141
27067, 114, 975, 267, 3640, 5390, -9450, -379, 339, -150
27068, 72, 983, 256, 3640, 7140, -9030, -387, 333, -148
27069, 44, 966, 255, 3290, 5880, -8820, -390, 334, -154
27070, 17, 954, 258, 2800, 4550, -8540, -390, 322, -144
27071, 10, 958, 259, 2310, 2590, -8330, -382, 324, -154
27072, 5, 973, 267, 1890, 140, -7630, -385, 327, -160
27073, 6, 971, 274, 1610, -1260, -7280, -381, 324, -145
27074, -3, 976, 276, 1050, -3920, -7000, -385, 325, -148
27075, -21, 993, 273, 140, -7770, -6930, -388, 322, -150
27076, -35, 1001, 269, -1260, -13370, -6860, -372, 328, -151
27077, -44, 984, 273, -3500, -22400, -6790, -381, 334, -147
27078, -46, 988, 276, -4480, -26320, -6790, -381, 322, -141
27079, -4, 982, 282, -5180, -29470, -6580, -381, 337, -157
27080, 18, 966, 282, -5460, -30590, -6020, -378, 322, -153
27081, 45, 950, 282, -5460, -28070, -4760, -382, 330, -154
27082, 39, 962, 285, -4830, -25970, -3990, -379, 324, -154
27083, 20, 973, 289, -4690, -24220, -3150, -384, 327, -166
27084, 3, 975, 291, -4970, -24150, -2520, -373, 321, -165
27085, -3, 976, 290, -5250, -24430, -1890, -382, 321, -165
27086, -6, 978, 298, -6650, -29050, -1260, -379, 318, -166
27087, 2, 975, 302, -7070, -31150, -980, -387, 334, -169
27088, 41, 966, 308, -7140, -32130, -770, -393, 331, -172
27089, 48, 957, 308, -6860, -31990, -350, -379, 331, -177
27090, 53, 939, 310, -6370, -31360, 140, -384, 321, -178
27091, 42, 939, 302, -5950, -30240, 980, -381, 333, -178
27092, 36, 954, 294, -6160, -30310, 1260, -382, 328, -180
27093, 40, 970, 296, -6510, -30660, 1260, -391, 337, -175
27094, 42, 981, 301, -6930, -31640, 1190, -376, 328, -175
27095, 57, 977, 309, -7350, -33460, 980, -385, 339, -183
27096, 91, 958, 318, -7350, -34160, 840, -391, 319, -187
27097, 70, 948, 317, -7560, -35770, 490, -385, 333, -183
27098, 67, 937, 315, -7770, -38150, 0, -385, 319, -193
27099, 71, 939, 306, -8050, -40040, -490, -384, 328, -190
27100, 92, 943, 307, -8610, -42280, -1750, -387, 322, -196
27101, 106, 942, 311, -8960, -43680, -2450, -390, 327, -198
27102, 107, 944, 307, -9450, -44800, -3150, -388, 331, -199
27103, 129, 951, 314, -9660, -45150, -3780, -391, 330, -195
27104, 167, 949, 318, -9520, -43890, -4270, -391, 330, -208
27105, 139, 947, 325, -8540, -39270, -5040, -391, 319, -211
27106, 138, 935, 327, -8400, -38780, -5600, -394, 328, -213
27107, 143, 932, 319, -8050, -38080, -6160, -394, 327, -211
27108, 130, 938, 319, -7770, -37240, -6720, -397, 319, -216
27109, 125, 925, 316, -7560, -37450, -7840, -390, 319, -219
27110, 129, 940, 305, -7350, -37240, -8330, -393, 327, -213
27111, 121, 951, 304, -7280, -36120, -8820, -387, 318, -223
27112, 105, 955, 309, -7560, -35770, -9100, -400, 316, -228
27113, 111, 938, 305, -8050, -35140, -9450, -390, 324, -219
27114, 114, 975, 301, -9940, -33810, -9940, -393, 324, -225
27115, 100, 976, 301, -11270, -33250, -9940, -385, 321, -231
27116, 59, 920, 336, -12530, -32410, -10010, -394, 325, -228
27117, 52, 898, 379, -13230, -33740, -10430, -400, 322, -240
27118, 149, 967, 385, -12110, -32060, -10500, -393, 321, -238
27119, 310, 938, 390, -2800, -9730, -8540, -390, 318, -244
27120, 264, 832, 368, 2170, 2100, -7280, -394, 316, -232
27121, 153, 790, 329, 4760, 7840, -6580, -393, 318, -235
27122, 73, 847, 286, 4900, 8470, -6440, -387, 318, -235
27123, 21, 935, 261, 1750, 5670, -6650, -381, 301, -234
27124, 38, 1022, 288, -280, 4550, -6860, -378, 318, -234
27125, 95, 1029, 322, -1820, 3220, -7000, -388, 312, -234
27126, 179, 1048, 335, -2380, 3500, -6860, -396, 310, -247
27127, 228, 1026, 334, -1610, 7210, -6230, -394, 310, -247
27128, 143, 845, 342, 2940, 18060, -4690, -388, 318, -231
27129, 98, 818, 324, 5390, 23170, -4340, -396, 316, -234
27130, 69, 830, 305, 7000, 26460, -4060, -381, 315, -238
27131, 73, 873, 287, 7630, 27510, -3780, -387, 307, -243
27132, 75, 922, 284, 6860, 25690, -3780, -397, 315, -235
27133, 58, 1033, 303, 2590, 15610, -4550, -382, 312, -235
27134, 66, 1076, 313, 560, 11690, -5040, -390, 322, -232
27135, 55, 1044, 319, -630, 9170, -5530, -394, 318, -231
27136, 54, 972, 336, -1120, 7420, -5880, -388, 315, -229
27137, 75, 878, 330, 280, 7420, -5670, -387, 310, -223
27138, 126, 873, 325, 1680, 10710, -5110, -382, 315, -225
27139, 99, 873, 312, 2940, 14210, -4690, -381, 316, -237
27140, 69, 891, 320, 3640, 15330, -4410, -381, 325, -229
27141, 55, 925, 306, 3570, 14980, -4340, -391, 307, -237
27142, 84, 1026, 320, 2940, 14420, -4200, -385, 316, -223
27143, 80, 1026, 319, 2730, 15260, -3990, -381, 309, -222
27144, 76, 1002, 315, 2590, 15190, -3710, -387, 321, -234
27145, 56, 948, 313, 2380, 14840, -3430, -381, 313, -229
27146, 54, 932, 304, 2240, 14560, -3150, -364, 319, -216
27147, 24, 967, 286, 2100, 15260, -2170, -384, 307, -222
27148, -14, 934, 304, 1680, 14140, -1680, -373, 303, -220
27149, -16, 931, 305, 770, 10920, -1540, -387, 318, -223
27150, 0, 976, 316, 0, 7840, -1260, -387, 312, -222
27151, 94, 1009, 325, 1680, 11270, 0, -390, 313, -228
27152, 87, 957, 326, 3220, 16030, 980, -382, 313, -226
27153, 66, 900, 314, 4270, 18200, 1750, -376, 313, -223
27154, 25, 887, 303, 4410, 18060, 2310, -385, 318, -217
27155, 44, 900, 287, 4200, 17710, 2730, -376, 313, -219
27156, -13, 872, 289, 2730, 17220, 3360, -384, 322, -213
27157, -26, 920, 314, 1540, 13090, 3290, -385, 312, -217
27158, 57, 988, 360, 1190, 9730, 3150, -379, 313, -223
27159, 167, 1082, 347, 2380, 11130, 3500, -391, 313, -216
27160, 213, 1090, 331, 4830, 17570, 4340, -381, 324, -211
27161, -15, 884, 325, 6300, 19740, 4690, -379, 315, -217
27162, -45, 884, 295, 4410, 12740, 4060, -378, 324, -208
27163, -8, 872, 273, 2590, 7630, 3710, -373, 310, -220
27164, 40, 954, 240, 1820, 5390, 3570, -382, 319, -208
27165, 24, 1026, 320, -280, 1260, 3010, -378, 316, -216
27166, 44, 1041, 319, -1820, -4830, 2520, -376, 322, -207
27167, 137, 1173, 322, -2590, -7910, 2170, -381, 319, -220
27168, 117, 1158, 314, -2240, -5810, 2030, -382, 319, -217
27169, 24, 998, 319, -1960, -4620, 1610, -379, 322, -228
27170, -31, 750, 284, -3640, -14980, 210, -381, 318, -205
27171, 24, 805, 271, -3990, -18550, -70, -378, 322, -216
27172, 46, 848, 274, -3640, -17360, -210, -393, 327, -216
27173, 24, 854, 311, -3360, -17990, -630, -387, 325, -213
27174, -3, 926, 333, -3850, -21490, -1400, -381, 328, -213
27175, 118, 1130, 325, -4410, -24990, -2730, -391, 330, -214
27176, 95, 1061, 321, -3990, -22540, -2940, -384, 324, -225
27177, 24, 963, 324, -4690, -23450, -3430, -376, 330, -213
27178, 2, 922, 313, -6160, -28000, -4200, -394, 322, -219
27179, 53, 937, 303, -8050, -32760, -5320, -388, 325, -229
27180, 61, 915, 302, -7140, -29680, -5460, -384, 325, -226
27181, 62, 857, 328, -5740, -26460, -5740, -385, 333, -234
27182, 38, 837, 334, -4690, -25060, -5950, -388, 315, -229
27183, 84, 870, 322, -3780, -24710, -6230, -387, 327, -229
27184, 88, 928, 331, -2380, -21350, -6720, -384, 319, -228
27185, 80, 957, 326, -2030, -20370, -7000, -388, 319, -231
27186, 86, 1029, 316, -2030, -20020, -7490, -388, 319, -238
27187, 90, 1079, 308, -2660, -20020, -7840, -396, 324, -232
27188, 66, 1077, 293, -3640, -19600, -8260, -393, 316, -234
27189, 8, 1039, 308, -7700, -27090, -9870, -385, 318, -240
27190, -7, 1013, 313, -9590, -31990, -10850, -402, 313, -237
27191, 7, 966, 305, -10500, -35140, -11830, -390, 310, -235
27192, 39, 885, 321, -9870, -34650, -12460, -393, 318, -234
27193, 112, 809, 325, -6650, -27860, -12740, -394, 313, -247
27194, 83, 812, 331, -4690, -22610, -12530, -393, 309, -258
27195, 120, 870, 329, -2870, -17500, -12250, -391, 316, -253
27196, 107, 966, 303, -1260, -11620, -11760, -384, 312, -253
27197, 104, 1022, 314, -210, -6020, -11340, -381, 318, -247
27198, 100, 1057, 301, -1330, -1680, -11060, -379, 316, -247
27199, 106, 1033, 305, -2310, -1190, -10850, -391, 319, -249
27200, 142, 1018, 293, -2520, 1960, -10640, -385, 301, -250
27201, 135, 969, 284, -1820, 7700, -10010, -393, 312, -252
27202, 109, 858, 289, -560, 16940, -9240, -391, 313, -246
27203, 81, 749, 307, 1610, 19880, -9100, -388, 310, -244
27204, 137, 814, 321, 3570, 22610, -8680, -378, 304, -246
27205, 199, 910, 310, 6650, 28210, -8120, -369, 307, -252
27206, 227, 962, 308, 9870, 35560, -7490, -378, 307, -243
27207, 46, 965, 286, 11270, 37660, -7140, -382, 312, -250
27208, -3, 1012, 266, 8820, 29960, -7770, -382, 313, -234
27209, -20, 1099, 237, 5460, 22260, -8610, -394, 300, -240
27210, -7, 1107, 241, 2310, 15680, -9450, -382, 298, -240
27211, -22, 1065, 267, -700, 9520, -10360, -373, 297, -243
27212, 25, 997, 313, -4130, -2940, -12250, -379, 303, -240
27213, 70, 986, 313, -3290, -3290, -12600, -378, 304, -231
27214, 74, 951, 296, -980, 350, -12530, -373, 306, -243
27215, 22, 810, 303, 1120, 3220, -12460, -372, 304, -241
27216, -49, 732, 293, 2100, -420, -12950, -375, 309, -241
27217, -20, 929, 238, 1470, -2800, -13090, -373, 300, -256
27218, -24, 1002, 249, 350, -3220, -12950, -375, 310, -238
27219, -68, 1058, 275, -1540, -5810, -13230, -375, 298, -238
27220, -65, 1112, 317, -4130, -11200, -13930, -381, 304, -244
27221, 62, 1227, 307, -6790, -15470, -14140, -375, 297, -250
27222, 57, 1106, 309, -5600, -10220, -13510, -375, 297, -252
27223, -7, 897, 325, -4060, -4340, -12880, -363, 297, -243
27224, -61, 742, 320, -3150, -2100, -12250, -376, 294, -250
27225, -47, 736, 281, -1960, -1260, -11690, -372, 300, -244
27226, -29, 801, 287, 1820, 7700, -9520, -372, 304, -247
27227, -23, 847, 308, 3290, 10710, -8890, -370, 298, -249
27228, -62, 934, 301, 3430, 9030, -8750, -367, 303, -258
27229, -57, 1028, 306, 2590, 5250, -8610, -367, 291, -258
27230, -34, 1101, 319, 1260, 2590, -8330, -370, 298, -244
27231, -49, 1037, 304, 980, 3150, -8190, -372, 295, -259
27232, -94, 924, 265, 140, 1820, -7770, -375, 304, -256
27233, -115, 824, 277, -1050, -280, -7420, -370, 304, -256
27234, -44, 844, 304, -1540, -560, -7070, -372, 306, -250
27235, 82, 1039, 324, 840, 7770, -5110, -381, 301, -264
27236, 64, 1041, 314, 3080, 14770, -4060, -370, 303, -249
27237, -60, 846, 377, 4270, 18060, -3500, -364, 301, -249
27238, -49, 839, 373, 5110, 15190, -3640, -369, 304, -250
27239, 17, 965, 295, 6720, 14980, -3080, -372, 310, -244
27240, 8, 989, 251, 10150, 26810, -770, -373, 313, -238
27241, -176, 837, 281, 7630, 22330, -980, -372, 306, -246
27242, -256, 1003, 268, 2100, 6580, -2100, -367, 309, -241
27243, -75, 1258, 247, -3080, -5740, -2590, -375, 307, -238
27244, 17, 1295, 254, -5530, -3990, -2590, -363, 306, -243
27245, -177, 846, 355, -5600, -6020, -3010, -370, 306, -241
27246, -158, 673, 324, -5530, -11410, -3500, -375, 307, -247
27247, -12, 659, 298, -3430, -12320, -3080, -379, 304, -238
27248, 73, 687, 295, 770, -2520, -2030, -366, 304, -243
27249, -30, 836, 306, 7350, 13020, 0, -369, 309, -237
27250, -26, 1054, 311, 6510, 11060, 420, -373, 306, -234
27251, -8, 1276, 300, 4060, 8190, 630, -367, 310, -246
27252, -41, 1338, 306, 1190, 5810, 770, -364, 306, -238
27253, -92, 1239, 329, -1400, 3290, 770, -364, 298, -246
27254, -83, 902, 303, -3290, -3080, 1050, -376, 300, -240
27255, -43, 786, 321, -1190, -350, 1750, -378, 297, -229
27256, 29, 755, 300, 2520, 6020, 3010, -372, 297, -234
27257, 29, 755, 284, 6370, 14560, 4480, -375, 304, -243
27258, -31, 910, 289, 8050, 17360, 6300, -369, 304, -235
27259, -97, 1133, 263, 5740, 12110, 6860, -370, 304, -241
27260, -104, 1229, 247, 2800, 8050, 7350, -367, 309, -226
27261, -153, 1138, 292, -560, 2870, 7490, -367, 297, -244
27262, -175, 1058, 331, -3500, -4410, 7210, -372, 301, -249
27263, 28, 1023, 300, -2940, -5950, 8400, -373, 295, -249
27264, 35, 870, 292, 840, 3780, 9870, -378, 312, -241
27265, -77, 665, 301, 3990, 10990, 10920, -381, 312, -241
27266, -144, 587, 295, 4760, 9800, 11410, -375, 289, -232
27267, -137, 709, 245, 4130, 3080, 11550, -373, 304, -238
27268, -25, 1071, 282, 2730, 210, 12110, -370, 312, -241
27269, -35, 1149, 321, 1750, -840, 11830, -379, 301, -243
27270, -12, 1184, 359, 70, -5250, 11200, -384, 306, -235
27271, 46, 1171, 351, -1050, -7560, 10710, -376, 297, -247
27272, 97, 899, 301, 840, 0, 11060, -376, 303, -241
27273, 27, 716, 294, 2450, 4550, 11200, -376, 309, -238
27274, 12, 679, 282, 3290, 4830, 10780, -379, 310, -235
27275, 53, 811, 273, 3850, 4900, 10500, -388, 313, -247
27276, 110, 963, 259, 4200, 6090, 10080, -382, 300, -237
27277, 55, 1047, 348, 2310, 1610, 7700, -384, 310, -232
27278, 90, 1142, 344, 560, -4690, 5950, -382, 306, -240
27279, 208, 1206, 323, 280, -6790, 4620, -379, 312, -238
27280, 232, 1136, 290, 1610, -420, 3990, -390, 301, -246
27281, 122, 912, 291, 2730, 5320, 3290, -381, 310, -238
27282, 16, 715, 271, 630, -1960, 630, -376, 307, -237
27283, 91, 809, 242, 140, -3710, -350, -387, 315, -246
27284, 143, 863, 252, 1330, 1260, -630, -384, 307, -232
27285, 110, 911, 274, 2870, 7350, -1120, -381, 301, -243
27286, 137, 1108, 321, 910, 3080, -3290, -393, 313, -237
27287, 183, 1199, 312, -280, 1120, -4480, -391, 324, -241
27288, 166, 1160, 305, -350, 3080, -5600, -385, 315, -243
27289, 78, 959, 298, 0, 5740, -6720, -387, 325, -255
27290, 14, 764, 287, 0, 3080, -8050, -375, 310, -246
27291, 35, 773, 206, -280, -2170, -9590, -387, 319, -238
27292, -11, 782, 237, -490, -1400, -10010, -384, 312, -240
27293, -39, 851, 326, -1050, -3290, -10920, -370, 318, -238
27294, 43, 1025, 342, -1330, -6160, -11690, -378, 312, -243
27295, 229, 1218, 301, 350, 0, -11130, -375, 316, -237
27296, 167, 893, 359, 7770, 28210, -8610, -381, 310, -246
27297, 125, 858, 278, 10010, 34580, -7490, -379, 313, -241
27298, 161, 867, 199, 11690, 42350, -5460, -372, 312, -240
27299, 102, 801, 173, 12530, 50540, -3220, -378, 307, -228
27300, -42, 814, 220, 10430, 53060, -630, -367, 315, -223
27301, 53, 1021, 223, 8960, 50120, 630, -366, 319, -217
27302, 130, 1171, 270, 9380, 51730, 2240, -376, 315, -211
27303, 114, 1228, 313, 10850, 57470, 3920, -375, 300, -219
27304, 81, 1221, 307, 12110, 59640, 4970, -375, 310, -219
27305, 10, 1083, 256, 11410, 53200, 7000, -366, 307, -217
27306, -33, 982, 182, 10010, 49700, 8260, -375, 303, -196
27307, -103, 831, 160, 7910, 45080, 9310, -364, 307, -207
27308, -215, 736, 181, 4620, 37030, 9870, -367, 313, -202
27309, -146, 833, 216, 1890, 26040, 11620, -370, 303, -210
27310, 81, 1163, 217, 2660, 26880, 13090, -364, 313, -199
27311, 5, 1127, 255, 4480, 32900, 14070, -370, 306, -199
27312, -60, 1076, 260, 4550, 30870, 14490, -378, 310, -190
27313, -115, 1081, 261, 2310, 21770, 14490, -376, 319, -190
27314, -102, 1133, 147, -2800, 3640, 14630, -372, 319, -196
27315, -158, 963, 146, -5250, -1820, 14350, -364, 304, -195
27316, -289, 807, 177, -8820, -10290, 13440, -373, 315, -189
27317, -262, 833, 171, -12950, -24710, 12390, -376, 306, -195
27318, -146, 985, 185, -15470, -34580, 11970, -378, 313, -205
27319, -5, 1126, 293, -12250, -27020, 12390, -372, 310, -211
27320, 10, 1076, 287, -9590, -21490, 12460, -369, 321, -210
27321, -34, 1004, 264, -7980, -19110, 12250, -382, 312, -210
27322, -18, 908, 238, -7000, -19880, 12320, -378, 316, -210
27323, -29, 872, 207, -5180, -16590, 12810, -379, 307, -207
27324, -59, 843, 157, -4900, -14210, 12740, -379, 316, -211
27325, -86, 860, 190, -5740, -17150, 12390, -381, 315, -219
27326, -146, 955, 209, -7490, -22190, 11620, -385, 315, -217
27327, -48, 1044, 233, -8470, -28350, 11130, -391, 316, -225
27328, -1, 1149, 224, -6230, -28000, 11410, -378, 328, -222
27329, -77, 1083, 243, -5250, -26530, 11760, -390, 315, -232
27330, -55, 988, 235, -5180, -26880, 11690, -387, 327, -219
27331, -70, 977, 189, -5810, -28140, 11200, -387, 325, -223
27332, 3, 959, 152, -6090, -27440, 11340, -399, 321, -228
27333, 49, 844, 173, -5110, -16100, 12670, -391, 322, -229
27334, 69, 857, 186, -4060, -9100, 13580, -397, 328, -228
27335, 88, 921, 216, -2730, -2170, 14630, -402, 327, -232
27336, 117, 965, 250, -1120, 4900, 15820, -393, 322, -220
27337, 165, 995, 229, 3220, 18550, 18200, -399, 333, -222
27338, 142, 861, 229, 5110, 24220, 19250, -399, 330, -219
27339, 92, 849, 234, 6230, 27790, 20230, -394, 325, -216
27340, 98, 938, 191, 6300, 27440, 21070, -394, 334, -219
27341, 105, 1035, 184, 5810, 26180, 22260, -396, 327, -205
27342, 45, 1023, 222, 3150, 25130, 23590, -399, 331, -210
27343, 66, 995, 206, 1470, 22050, 23520, -399, 324, -207
27344, 76, 961, 198, 210, 18550, 23310, -391, 334, -210
27345, 110, 931, 206, -140, 16800, 23450, -393, 321, -207
27346, 109, 948, 209, -210, 17010, 23870, -405, 325, -213
27347, 95, 1003, 252, -1050, 13020, 23520, -403, 327, -213
27348, 163, 1097, 256, -1610, 8890, 22960, -400, 321, -207
27349, 223, 1161, 232, -1820, 8540, 22750, -399, 337, -208
27350, 233, 1065, 218, -1470, 10920, 22540, -405, 331, -207
27351, 120, 921, 234, -2100, 7560, 20510, -417, 333, -210
27352, 171, 987, 201, -2380, 4900, 19740, -408, 319, -202
27353, 206, 979, 185, -1960, 4060, 19040, -409, 330, -216
27354, 67, 853, 196, -2520, 1540, 18340, -412, 333, -207
27355, -9, 788, 212, -4340, -6860, 16590, -408, 330, -207
27356, 56, 1091, 218, -8890, -29820, 12460, -409, 333, -211
27357, 64, 1160, 217, -9660, -36470, 10640, -405, 336, -220
27358, 30, 1057, 241, -10220, -42280, 8470, -403, 331, -213
27359, -48, 934, 246, -11900, -50890, 6020, -415, 331, -219
27360, 0, 925, 216, -13860, -60270, 3290, -414, 337, -225
27361, 77, 966, 216, -15120, -66080, -420, -417, 324, -220
27362, 56, 963, 235, -14280, -64050, -1680, -414, 328, -225
27363, 95, 923, 252, -13230, -61810, -3080, -427, 325, -235
27364, 106, 910, 237, -12040, -58170, -4480, -420, 327, -228
27365, 170, 863, 264, -8260, -47600, -6510, -414, 339, -231
27366, 222, 861, 259, -5600, -40110, -6930, -429, 324, -243
27367, 187, 865, 245, -3220, -31710, -6930, -411, 327, -247
27368, 197, 830, 247, -1330, -23240, -6790, -429, 337, -244
27369, 184, 855, 245, -630, -16170, -6720, -415, 327, -246
27370, 277, 986, 274, 700, -2030, -6650, -417, 330, -243
27371, 380, 1048, 285, 2590, 8120, -6230, -424, 331, -244
27372, 422, 1082, 265, 4690, 20160, -5460, -423, 339, -237
27373, 459, 1044, 294, 6650, 31010, -4760, -415, 343, -243
27374, 333, 1021, 294, 7700, 37730, -4340, -417, 328, -250
27375, 282, 929, 233, 9240, 44730, -3780, -421, 343, -252
27376, 282, 855, 214, 10080, 47250, -3640, -427, 339, -237
27377, 151, 869, 202, 9520, 46480, -3850, -409, 340, -235
27378, 164, 941, 257, 7560, 40250, -4130, -423, 333, -229
27379, 142, 1179, 243, 3010, 26600, -4900, -414, 345, -237
27380, 92, 1102, 239, 1750, 23800, -5110, -414, 342, -226
27381, 73, 895, 280, 700, 19600, -5600, -409, 343, -229
27382, -24, 862, 263, -630, 12740, -6160, -408, 336, -225
27383, 90, 858, 247, -1190, 5740, -6650, -412, 339, -231
27384, 93, 880, 261, -840, 1610, -6650, -411, 334, -223
27385, -47, 853, 263, -1820, -1330, -7140, -405, 333, -225
27386, 11, 888, 268, -3290, -8820, -7910, -412, 331, -216
27387, 2, 1032, 247, -4620, -15260, -8540, -409, 334, -222
27388, 78, 1154, 260, -4690, -17920, -8750, -411, 321, -228
27389, -47, 1196, 288, -6860, -21910, -9240, -403, 328, -232
27390, -188, 1095, 268, -10640, -33880, -10080, -406, 334, -229
27391, -193, 934, 260, -14420, -47320, -11130, -405, 331, -241
27392, -225, 806, 203, -16450, -56560, -12040, -402, 330, -231
27393, -157, 594, 309, -14560, -55720, -12250, -421, 318, -241
27394, -130, 682, 334, -11270, -54460, -12600, -411, 321, -243
27395, 49, 911, 333, -6650, -47670, -11900, -406, 327, -241
27396, 141, 1084, 320, -1190, -34930, -9870, -415, 322, -259
27397, 136, 1060, 334, 2800, -21490, -7560, -415, 325, -249
27398, -82, 1120, 280, 1470, -19880, -5110, -424, 313, -250
27399, -125, 1240, 242, -1820, -24010, -4270, -423, 319, -258
27400, -52, 1215, 216, -4410, -25130, -3010, -409, 316, -256
27401, -114, 1027, 213, -6440, -22540, -1680, -414, 321, -255
27402, -157, 823, 246, -8470, -24080, -490, -411, 313, -255
27403, -6, 824, 318, -8540, -27650, 1610, -409, 315, -255
27404, 120, 951, 317, -3780, -17430, 3500, -412, 318, -270
27405, 157, 966, 322, 2520, -3150, 5740, -411, 322, -264
27406, 76, 879, 339, 7210, 7420, 7350, -418, 321, -274
27407, 70, 1023, 251, 8330, 2310, 8400, -417, 322, -265
27408, 110, 1103, 179, 6720, -350, 8960, -418, 325, -258
27409, -31, 1022, 176, 3640, -3150, 9380, -420, 336, -264
27410, -132, 931, 206, -1050, -11340, 8540, -424, 324, -265
27411, -172, 962, 235, -6860, -25690, 7210, -415, 327, -274
27412, 138, 1043, 279, -9940, -34090, 5880, -423, 331, -273
27413, 267, 984, 289, -6090, -22610, 6300, -423, 324, -280
27414, 272, 848, 342, -1610, -9870, 7070, -423, 331, -271
27415, 264, 817, 348, 2170, -1120, 7350, -424, 327, -270
27416, 313, 888, 294, 5040, 4410, 7910, -432, 331, -271
27417, 284, 912, 199, 8960, 19530, 9030, -423, 337, -262
27418, 175, 945, 193, 8050, 22890, 9170, -424, 330, -264
27419, 188, 1023, 207, 5040, 19390, 8680, -421, 330, -267
27420, 160, 1121, 239, 1260, 13300, 7840, -424, 343, -267
27421, 241, 1029, 266, -1190, 9170, 6510, -424, 324, -264
27422, 260, 782, 289, 1330, 14070, 6230, -427, 334, -258
27423, 236, 489, 299, 5460, 19530, 6160, -427, 328, -256
27424, 216, 214, 269, 10920, 26530, 6090, -418, 325, -258
27425, 336, 267, 175, 17220, 32620, 6790, -418, 330, -268
27426, 402, 1254, 216, 23660, 49000, 9310, -432, 325, -244
27427, 189, 1545, 257, 18550, 41090, 8540, -415, 321, -249
27428, 120, 1629, 296, 9030, 19880, 6230, -423, 324, -241
27429, 61, 1671, 204, -140, 3080, 3290, -415, 322, -247
27430, 231, 1453, 173, -5810, -7420, 770, -420, 328, -246
27431, 138, 501, 279, -8610, -9170, 140, -411, 324, -256
27432, 129, 375, 265, -5880, -7980, -840, -417, 325, -259
27433, 328, 564, 236, 910, 1890, -630, -424, 316, -253
27434, 370, 887, 255, 9870, 21770, 980, -414, 324, -243
27435, 261, 949, 279, 18060, 45710, 3710, -411, 319, -241
27436, 175, 907, 255, 13860, 35140, 2730, -427, 321, -232
27437, 162, 1132, 137, 7630, 20090, 1470, -408, 321, -238
27438, 223, 1212, 105, 2940, 15120, 630, -415, 316, -237
27439, 105, 1087, 134, -420, 14420, 0, -417, 321, -240
27440, 53, 899, 302, -7350, -490, -3150, -412, 327, -240
27441, 243, 1040, 297, -7490, -5600, -4060, -414, 318, -244
27442, 459, 1059, 273, -3360, 2520, -3710, -408, 324, -237
27443, 411, 840, 320, 3010, 17710, -3290, -420, 316, -244
27444, 314, 727, 325, 10430, 29120, -4760, -409, 325, -235
27445, 305, 1104, 186, 10010, 26670, -5670, -411, 313, -225
27446, 290, 1138, 186, 7490, 22050, -6370, -418, 321, -228
27447, 116, 1101, 186, 2940, 15680, -7980, -409, 328, -228
27448, 80, 1070, 194, -3010, 3360, -10150, -406, 319, -231
27449, 144, 987, 227, -10920, -13370, -13790, -408, 321, -231
27450, 181, 867, 264, -10010, -10570, -14840, -408, 318, -226
27451, 270, 714, 313, -6440, -2870, -15470, -411, 324, -235
27452, 313, 735, 313, -1120, 8330, -15330, -408, 319, -228
27453, 400, 857, 293, 4550, 21350, -14280, -408, 327, -238
27454, 224, 1049, 246, 10360, 38500, -12250, -417, 331, -232
27455, 108, 1052, 217, 7980, 34370, -12460, -409, 336, -226
27456, -33, 1029, 192, 2730, 22540, -13160, -402, 328, -219
27457, -49, 993, 171, -2590, 9590, -13790, -397, 322, -220
27458, -89, 916, 185, -8120, -4270, -14280, -405, 334, -219
27459, -108, 615, 306, -7210, -6510, -14280, -411, 331, -232
27460, 16, 595, 330, -3430, -4480, -13580, -402, 318, -229
27461, 129, 649, 313, 2730, 3990, -12040, -402, 327, -226
27462, 195, 758, 305, 9940, 16730, -9870, -403, 331, -214
27463, 74, 1268, 263, 15400, 26880, -6580, -400, 322, -214
27464, 0, 1535, 234, 10850, 17710, -6020, -405, 327, -211
27465, -182, 1638, 148, 2380, 2870, -6440, -399, 328, -213
27466, -305, 1513, 91, -8610, -15540, -6930, -394, 330, -229
27467, -394, 1201, 112, -19950, -34860, -8120, -405, 336, -217
27468, -254, 864, 348, -33320, -70070, -10010, -403, 318, -231
27469, 54, 1045, 309, -28980, -63560, -9170, -400, 325, -252
27470, 173, 1003, 317, -17710, -36960, -6510, -408, 328, -232
27471, 161, 637, 427, -5110, -5880, -3710, -403, 325, -243
27472, 82, 513, 413, 8960, 18620, 280, -403, 319, -238
27473, 211, 1012, 227, 11410, 20580, 2800, -402, 325, -235
27474, 209, 1286, 117, 11970, 26600, 5390, -397, 319, -234
27475, -16, 1299, 99, 8260, 28490, 7070, -405, 322, -235
27476, -302, 1064, 156, -1050, 15120, 6370, -405, 325, -234
27477, -64, 1396, 241, -19040, -37030, 2170, -397, 328, -252
27478, 149, 1295, 198, -17850, -33390, 2660, -406, 328, -243
27479, 117, 576, 248, -11760, -16170, 3500, -409, 328, -250
27480, -77, -103, 361, -5390, -3920, 3150, -405, 325, -237
27481, -75, -189, 324, -280, -3010, 2590, -400, 312, -246
27482, 371, 912, 182, 15750, 15680, 6930, -397, 324, -250
27483, 475, 1421, 275, 22610, 37870, 10220, -406, 319, -241
27484, 195, 1727, 341, 21490, 46480, 11060, -402, 318, -247
27485, 76, 1975, 352, 11690, 29890, 9380, -405, 325, -246
27486, 130, 2088, 192, -10430, -7000, 6790, -400, 322, -238
27487, 249, 936, 155, -12950, -3430, 7560, -405, 325, -249
27488, -27, 216, 199, -10850, 8750, 7840, -406, 316, -250
27489, -22, -125, 253, -5950, 17430, 8960, -409, 322, -246
27490, 128, -73, 251, 2940, 31500, 10920, -406, 337, -256
27491, 476, 656, 255, 26530, 78190, 19040, -408, 336, -247
27492, 524, 971, 325, 33320, 92820, 21980, -402, 327, -240
27493, 448, 1292, 340, 32760, 92050, 22750, -411, 331, -234
27494, 430, 1621, 258, 26530, 78890, 21770, -402, 336, -240
27495, 385, 1622, 176, 18270, 64470, 19950, -403, 345, -222
27496, 21, 920, 160, 1190, 34580, 15190, -411, 324, -228
27497, -87, 678, 164, -4970, 17570, 12950, -409, 333, -226
27498, 43, 612, 179, -7350, 7280, 11900, -402, 334, -220
27499, 100, 637, 181, -4620, 9030, 11830, -403, 336, -213
27500, 148, 826, 293, 3780, 19320, 12250, -408, 334, -217
27501, 209, 1114, 329, 4200, 15260, 11690, -406, 328, -211
27502, 218, 1357, 287, 2380, 7140, 10500, -412, 327, -213
27503, 139, 1331, 268, -560, -420, 8960, -408, 342, -211
27504, 94, 1105, 276, -3570, -8260, 6860, -412, 327, -220
27505, 127, 784, 252, -5810, -17150, 3150, -402, 328, -213
27506, 204, 808, 215, -3500, -13300, 2730, -399, 327, -217
27507, 220, 784, 253, 210, -3850, 2870, -411, 327, -213
27508, 228, 812, 265, 3570, 3010, 3080, -411, 321, -208
27509, 175, 880, 276, 5460, 7210, 2940, -412, 325, -222
27510, 216, 1103, 293, 5810, 6790, 2100, -420, 327, -216
27511, 251, 1172, 251, 6090, 8190, 1820, -406, 324, -211
27512, 215, 1063, 239, 6510, 10500, 1610, -402, 322, -211
27513, 120, 923, 218, 5600, 10010, 1190, -397, 330, -214
27514, 35, 827, 228, 1750, 1260, 70, -399, 330, -210
27515, 87, 955, 248, 1260, -2030, -350, -406, 327, -207
27516, 193, 1030, 246, 2730, 350, -280, -406, 325, -210
27517, 191, 975, 252, 5250, 7630, 140, -403, 324, -214
27518, 206, 884, 254, 7420, 12670, 210, -411, 325, -217
27519, 164, 955, 185, 6160, 9730, 140, -405, 325, -214
27520, 133, 1076, 116, 3290, 7420, 490, -412, 315, -213
27521, 45, 1020, 116, -910, 5740, 350, -402, 321, -208
27522, -73, 924, 162, -6790, -1330, -700, -400, 325, -216
27523, -45, 983, 254, -12250, -12950, -2100, -411, 325, -208
27524, 393, 1194, 361, -8540, -8540, -2310, -408, 322, -216
27525, 573, 1100, 412, 2520, 16380, -630, -409, 310, -222
27526, 626, 876, 336, 14840, 46970, 2030, -394, 330, -207
27527, 479, 604, 268, 24010, 69650, 4270, -405, 324, -213
27528, 93, 763, 96, 23380, 67970, 7000, -399, 319, -195
27529, 18, 1084, 56, 15050, 49560, 7070, -397, 333, -207
27530, -68, 1281, 55, 4410, 27300, 6230, -409, 325, -192
27531, -188, 1276, 193, -5600, 5600, 4410, -408, 322, -195
27532, -82, 1413, 187, -12180, -12600, 2450, -405, 330, -199
27533, -33, 959, 275, -14000, -18200, 1750, -403, 327, -202
27534, -22, 640, 332, -11550, -19250, 1890, -409, 328, -201
27535, 29, 573, 279, -7560, -17570, 2100, -396, 322, -204
27536, 79, 584, 214, -2590, -11830, 3290, -408, 327, -196
27537, 76, 674, 185, 2380, -2310, 4550, -408, 322, -201
27538, -51, 1171, 233, 1890, -3080, 5740, -408, 319, -189
27539, -51, 1428, 248, -4130, -17290, 5180, -409, 325, -199
27540, -104, 1551, 210, -10430, -31920, 4130, -408, 334, -192
27541, -64, 1358, 256, -14910, -42350, 3080, -402, 322, -201
27542, -101, 783, 235, -16170, -49210, 1400, -409, 319, -196
27543, -33, 588, 224, -13440, -45220, 1540, -412, 319, -199
27544, -28, 541, 207, -9100, -35910, 2800, -415, 321, -199
27545, 37, 679, 204, -4760, -26880, 4480, -417, 319, -201
27546, 1, 901, 199, -2170, -18690, 6230, -403, 316, -217
27547, 43, 1312, 292, -3010, -18200, 7770, -408, 309, -202
27548, 88, 1498, 288, -4480, -21910, 7560, -412, 324, -201
27549, 114, 1370, 260, -5810, -23380, 7350, -408, 313, -207
27550, 66, 1030, 205, -7140, -25830, 6930, -421, 324, -199
27551, -82, 697, 197, -9030, -42210, 4340, -418, 318, -208
27552, -95, 710, 169, -12110, -49350, 3150, -418, 331, -214
27553, 3, 839, 177, -10920, -48020, 2800, -421, 321, -214
27554, 27, 950, 202, -8960, -42140, 2870, -424, 318, -220
27555, 66, 970, 292, -8120, -37170, 2590, -418, 325, -217
27556, 270, 1339, 303, -7630, -32060, 2030, -420, 328, -223
27557, 344, 1335, 240, -6230, -24150, 2380, -427, 325, -223
27558, 290, 1021, 244, -4620, -13790, 2870, -424, 322, -220
27559, 165, 727, 242, -3990, -6790, 2800, -427, 322, -228
27560, 150, 701, 210, -4060, -4830, 2520, -423, 333, -223
27561, 213, 875, 177, -2310, 5040, 3500, -429, 331, -223
27562, 220, 862, 239, -840, 11200, 3850, -418, 327, -223
27563, 231, 866, 293, -210, 13720, 3640, -429, 327, -220
27564, 329, 1027, 291, 910, 15260, 3220, -433, 340, -216
27565, 421, 1194, 259, 5670, 27440, 3920, -418, 334, -228
27566, 338, 898, 273, 7490, 33600, 4060, -429, 349, -223
27567, 286, 740, 247, 7910, 34510, 3500, -423, 334, -216
27568, 250, 755, 169, 7560, 32550, 2940, -436, 345, -213
27569, 289, 828, 150, 7490, 31780, 2730, -427, 340, -213
27570, 202, 871, 216, 6090, 30030, 2310, -432, 343, -216
27571, 146, 918, 234, 3500, 22190, 1400, -424, 346, -210
27572, 185, 886, 222, 1120, 13370, 70, -432, 340, -217
27573, 198, 1100, 188, 490, 9800, -910, -421, 339, -208
27574, 303, 1266, 246, 560, 10430, -1470, -436, 336, -207
27575, 204, 969, 271, -1680, 3850, -4130, -429, 336, -205
27576, 189, 900, 227, -2730, -70, -5530, -421, 340, -202
27577, 288, 783, 223, -2100, 560, -6370, -423, 336, -207
27578, 214, 614, 227, 910, 6720, -7140, -420, 330, -199
27579, 322, 668, 249, 10780, 18410, -7770, -430, 334, -210
27580, 439, 1028, 100, 12950, 28280, -6860, -423, 325, -214
27581, 71, 845, 146, 10570, 31220, -6510, -414, 339, -216
27582, 2, 832, 191, 2660, 14560, -8540, -412, 328, -207
27583, -55, 1184, 164, -6860, -9170, -11550, -415, 336, -205
27584, 249, 1425, 304, -11130, -17710, -14980, -406, 322, -199
27585, 330, 1079, 358, -6720, -8680, -15610, -421, 328, -214
27586, 259, 711, 370, -1330, -350, -16240, -418, 327, -211
27587, 332, 599, 283, 3570, 6510, -16520, -411, 321, -214
27588, 274, 625, 202, 8120, 14980, -16240, -409, 331, -220
27589, 78, 659, 148, 12110, 25830, -15470, -421, 331, -214
27590, 12, 764, 162, 8750, 19250, -16170, -406, 325, -214
27591, -10, 1046, 164, 2870, 6300, -17150, -406, 327, -201
27592, 91, 1307, 211, -2660, -3640, -18270, -405, 330, -208
27593, 187, 1427, 293, -5460, -2450, -19530, -400, 322, -208
27594, 320, 1161, 359, -2870, 6720, -19390, -408, 319, -211
27595, 340, 890, 314, 1540, 18550, -18480, -403, 328, -216
27596, 297, 664, 289, 6790, 31780, -17010, -399, 312, -211
27597, 290, 554, 208, 11970, 44030, -15260, -402, 325, -216
27598, 173, 631, 180, 16800, 58450, -11900, -402, 318, -216
27599, 115, 862, 188, 15260, 57050, -11060, -397, 322, -210
27600, 234, 1150, 249, 12460, 51870, -10570, -406, 322, -202
27601, 266, 1411, 214, 10080, 48790, -10150, -393, 319, -204
27602, 341, 1463, 296, 8960, 49350, -9800, -382, 330, -211
27603, 254, 1073, 275, 8120, 52080, -9380, -391, 324, -199
27604, 192, 853, 234, 8610, 52780, -9100, -387, 322, -198
27605, 170, 680, 185, 9450, 54530, -8260, -399, 327, -193
27606, 93, 618, 160, 10080, 55720, -7280, -385, 325, -190
27607, 29, 597, 196, 7840, 43820, -6230, -384, 321, -181
27608, 28, 917, 251, 6300, 34370, -5880, -390, 339, -175
27609, 47, 1069, 228, 5880, 29260, -5530, -387, 321, -178
27610, 66, 1131, 290, 6300, 26600, -5110, -379, 318, -169
27611, 59, 1207, 276, 6510, 23520, -5040, -376, 313, -174
27612, 0, 1105, 253, 2730, 13720, -5600, -384, 319, -160
27613, -23, 977, 220, 420, 7000, -6160, -378, 316, -174
27614, 35, 912, 186, -1190, 3430, -6230, -385, 310, -168
27615, -8, 855, 138, -1890, 3500, -6020, -361, 313, -168
27616, -58, 834, 200, -2520, 2870, -5810, -370, 315, -168
27617, -25, 1100, 240, -4060, -3780, -5600, -364, 300, -172
27618, 43, 1198, 269, -3990, -4690, -5180, -378, 318, -162
27619, -6, 1147, 217, -3780, -3430, -4830, -372, 309, -174
27620, -52, 983, 260, -3990, -3570, -4900, -367, 310, -169
27621, 41, 1038, 207, -5250, -8960, -5460, -370, 310, -171
27622, 109, 992, 232, -4480, -5390, -4900, -369, 306, -178
27623, 78, 788, 214, -3080, 70, -4130, -382, 300, -174
27624, -27, 596, 277, -1260, 6090, -3850, -370, 307, -171
27625, 27, 617, 250, 770, 8470, -3290, -364, 304, -172
27626, 216, 923, 232, 8820, 27090, 70, -366, 307, -165
27627, 170, 995, 217, 11620, 37310, 2030, -370, 301, -163
27628, 88, 1064, 276, 10920, 39480, 3080, -370, 309, -159
27629, 66, 1248, 250, 7140, 33460, 3220, -381, 306, -162
27630, 149, 1455, 186, 3150, 26740, 3220, -372, 307, -154
27631, 30, 1062, 225, -2240, 26180, 3710, -370, 310, -156
27632, -32, 798, 278, -4270, 21560, 3150, -378, 321, -162
27633, 89, 725, 253, -4270, 16800, 2660, -388, 313, -156
27634, 190, 761, 197, -840, 21560, 3150, -373, 318, -153
27635, 103, 521, 255, 9730, 41020, 5250, -373, 313, -147
27636, 96, 667, 291, 12460, 41300, 5460, -370, 322, -151
27637, 194, 1139, 219, 12670, 36540, 5600, -379, 304, -150
27638, 202, 1491, 218, 11130, 32900, 5600, -372, 324, -141
27639, 46, 1516, 239, 6860, 24290, 4970, -379, 316, -139
27640, -161, 1254, 190, -7630, -10850, 700, -376, 325, -144
27641, -79, 1154, 169, -13230, -23380, -910, -378, 321, -142
27642, -47, 961, 139, -15330, -26950, -1960, -378, 325, -145
27643, -58, 603, 234, -14280, -23520, -2520, -381, 328, -138
27644, -2, 466, 249, -10780, -17640, -2800, -385, 333, -142
27645, 264, 753, 257, 1260, 6370, -1260, -373, 319, -154
27646, 239, 933, 241, 7210, 21070, 0, -381, 322, -136
27647, 181, 1033, 310, 9730, 27930, 420, -381, 310, -133
27648, 141, 1122, 247, 8540, 27020, 280, -372, 318, -130
27649, 111, 1096, 179, 2310, 19530, -210, -367, 321, -136
27650, 12, 1017, 152, -350, 18130, -420, -381, 304, -147
27651, 17, 977, 200, -2450, 14980, -630, -375, 315, -138
27652, 17, 1026, 210, -4130, 12460, -840, -366, 312, -130
27653, 98, 1121, 250, -4550, 11200, -770, -379, 315, -139
27654, 94, 1111, 234, -2800, 14630, -350, -376, 312, -144
27655, 5, 832, 302, -1610, 13860, -840, -373, 315, -135
27656, -21, 614, 292, -560, 9940, -1890, -382, 313, -136
27657, 58, 565, 233, 1960, 7700, -2590, -372, 310, -139
27658, 147, 604, 192, 5880, 12110, -2380, -367, 307, -148
27659, 33, 708, 244, 10290, 23310, -1680, -370, 318, -139
27660, 58, 1015, 263, 7770, 16800, -2450, -381, 318, -132
27661, 180, 1433, 218, 4550, 11200, -3220, -379, 324, -141
27662, 255, 1537, 255, 2170, 13090, -3150, -372, 310, -132
27663, 38, 1043, 259, -1540, 18550, -3920, -381, 318, -138
27664, -7, 800, 261, -3710, 14420, -4550, -370, 318, -135
27665, 22, 592, 233, -3710, 13720, -4270, -376, 315, -136
27666, 56, 236, 242, 280, 21420, -2520, -379, 318, -133
27667, 99, -247, 250, 7980, 34370, -70, -367, 318, -135
27668, 240, 42, 236, 30030, 65590, 4200, -375, 318, -132
27669, 269, 955, 232, 40530, 86450, 5740, -376, 318, -127
27670, 180, 1728, 285, 44590, 98070, 6090, -375, 319, -112
27671, -54, 2144, 308, 37730, 79520, 4340, -370, 316, -109
27672, -130, 2197, 311, 21210, -8190, 210, -370, 321, -114
27673, 125, 1210, 203, -11620, -35490, 140, -373, 313, -106
27674, -31, 622, 74, -15750, -41020, 1120, -381, 319, -109
27675, -306, 497, 140, -13650, -32620, 2030, -381, 327, -118
27676, -307, 486, 335, -9170, -28490, 2870, -382, 325, -129
27677, 25, 822, 329, 6370, -8470, 5880, -388, 324, -112
27678, 218, 850, 297, 16170, 11620, 8190, -373, 325, -115
27679, -65, 1466, 181, 21910, 24500, 9240, -381, 327, -108
27680, -208, 2144, 136, 17430, 17850, 8820, -372, 315, -109
27681, -572, 2128, 155, 3290, -9660, 6510, -379, 330, -111
27682, -376, 1431, 134, -32690, -89180, 1890, -379, 328, -106
27683, -197, 1058, 42, -40180, -103530, 1190, -375, 321, -120
27684, -93, 466, 85, -39060, -101290, 1330, -378, 324, -135
27685, -304, -127, 240, -32410, -87780, 2170, -379, 322, -132
27686, 217, -152, 375, -10500, -53200, 4620, -379, 328, -135
27687, 101, 810, 302, 2940, -23380, 5670, -382, 318, -138
27688, -35, 1290, 315, 13860, 8050, 5040, -378, 316, -139
27689, -142, 1309, 331, 17150, 21910, 3640, -382, 310, -141
27690, -135, 1198, 275, 14140, 16730, 1330, -375, 310, -135
27691, 472, 2105, 26, 4480, 2380, 1470, -385, 324, -141
27692, 252, 1763, 81, -490, 5950, 3010, -387, 324, -139
27693, -328, 1009, 145, -9450, -5740, 2240, -384, 316, -148
27694, -537, 475, 153, -20790, -32410, 0, -379, 313, -139
27695, -171, 642, 86, -27650, -52360, -980, -385, 312, -147
27696, 266, 895, 113, -17080, -15820, 3360, -384, 306, -153
27697, -34, 1007, 205, -10990, 7350, 5110, -373, 318, -157
27698, -368, 958, 270, -11970, 7560, 4410, -385, 315, -150
27699, -415, 869, 209, -18760, -8750, 2310, -381, 319, -147
27700, -63, 896, 190, -28770, -30660, -1190, -382, 321, -159
27701, 149, 902, 292, -26320, -24080, -1470, -384, 315, -163
27702, 231, 567, 442, -19530, -10150, -1120, -390, 316, -166
27703, 462, 747, 349, -9520, 7420, -280, -384, 322, -157
27704, 504, 1185, 340, 1540, 28350, 910, -382, 315, -168
27705, 122, 1794, 235, 8890, 49280, 2800, -378, 328, -159
27706, -239, 1391, 280, 490, 27020, 980, -381, 322, -166
27707, -299, 1007, 185, -11900, -8260, -1680, -382, 328, -166
27708, -10, 706, 50, -19740, -27580, -3290, -379, 333, -162
27709, 8, 503, 24, -20510, -29190, -3360, -382, 325, -168
27710, 30, -123, 118, -15190, -19110, -2660, -378, 324, -171
27711, -106, -146, 106, -15120, -22820, -4480, -391, 331, -177
27712, 71, -31, 269, -14000, -30310, -7070, -390, 328, -180
27713, 493, 1301, 307, -8120, -24010, -9590, -372, 324, -163
27714, 545, 1847, 471, 14700, 33180, -11830, -388, 322, -163
27715, 300, 647, 487, 26810, 50050, -12180, -381, 316, -166
27716, 649, 612, 197, 36610, 67200, -12390, -379, 322, -156
27717, 397, 1037, -113, 42280, 84280, -11970, -373, 324, -148
27718, 88, 993, 23, 38990, 84070, -12530, -375, 316, -139
27719, -71, 2127, -18, 5250, 2450, -19320, -373, 319, -147
27720, 198, 2768, -7, -12810, -32970, -21630, -378, 313, -148
27721, 44, 2086, -35, -26880, -48580, -24220, -366, 316, -157
27722, -456, 901, 78, -38080, -65240, -28070, -378, 307, -165
27723, -585, 163, 55, -46410, -84700, -33740, -369, 297, -177
27724, 552, 1181, 235, -42700, -85960, -41230, -370, 301, -180
27725, 400, 834, 480, -30240, -49070, -43050, -364, 297, -186
27726, 382, 67, 502, -13790, -12110, -45290, -364, 306, -181
27727, 557, -286, 345, 3570, 17570, -45850, -361, 300, -183
27728, 646, 762, 132, 40880, 94920, -44590, -358, 300, -177
27729, 593, 748, 67, 50190, 125230, -43610, -366, 298, -168
27730, 88, 50, 85, 47460, 122010, -44170, -349, 300, -160
27731, -511, -271, 59, 36680, 90720, -48160, -358, 301, -145
27732, -283, 24, -19, 27370, 47110, -51660, -346, 298, -157
27733, 620, 428, -66, 34720, 58870, -51380, -346, 286, -156
27734, 567, 809, 119, 43540, 88970, -52010, -345, 285, -135
27735, 253, 2588, 228, 44520, 93590, -54460, -334, 285, -132
27736, 62, 3432, 365, 34160, 74690, -59850, -343, 292, -142
27737, -268, 2650, 389, 16590, 26600, -63910, -334, 276, -145
27738, -125, 792, -68, -7000, -51590, -68460, -318, 279, -151
27739, 258, 907, -54, -7770, -43470, -68810, -327, 273, -145
27740, -27, 934, -43, -7280, -29190, -70070, -319, 279, -150
27741, -104, 1034, -38, -9240, -21350, -73990, -321, 271, -157
27742, -343, 2010, 125, -27930, -49280, -85680, -322, 268, -159
27743, -446, 1848, 178, -35910, -72240, -91560, -316, 262, -168
27744, 49, 1319, 211, -37730, -87150, -94710, -306, 259, -171
27745, 177, 785, -75, -31710, -71750, -93940, -307, 256, -190
27746, 637, 85, 132, -20020, -33880, -91980, -304, 256, -184
27747, 322, 57, 19, -3080, 25970, -88690, -298, 244, -195
27748, 137, 111, -43, 490, 42350, -86870, -291, 249, -190
27749, 0, 86, -16, 2520, 57750, -85400, -303, 235, -187
27750, -168, 147, -20, 2380, 59640, -83300, -292, 222, -181
27751, -76, 217, -23, 1820, 59570, -81480, -283, 228, -186
27752, 79, 209, 9, 2450, 54950, -76790, -276, 223, -175
27753, -31, 568, 108, 4760, 50190, -76930, -276, 213, -175
27754, -405, 1486, 137, 7630, 55300, -82180, -274, 214, -172
27755, -1080, 1549, 69, 11130, 66080, -89460, -274, 199, -172
27756, -884, 120, 154, 15890, 51310, -103740, -265, 195, -162
27757, 216, 333, 58, 14490, 27300, -104370, -262, 189, -160
27758, 91, 717, -168, 18060, 34440, -100520, -258, 180, -163
27759, 866, 555, -18, 25130, 62020, -95340, -252, 171, -174
27760, 150, 582, -64, 31780, 98700, -91350, -253, 178, -153
27761, -459, 1425, -98, 35910, 115220, -89110, -244, 166, -150
27762, -905, 2478, -212, 36680, 115080, -91980, -247, 159, -133
27763, -924, 2338, -154, 36610, 118650, -96880, -237, 138, -133
27764, -768, 1298, 0, 35910, 124460, -99120, -232, 153, -123
27765, -273, 516, -70, 35070, 116340, -96810, -229, 133, -117
27766, 209, 727, -279, 38290, 146860, -81480, -225, 130, -97
27767, 118, 534, -217, 40250, 170170, -73780, -229, 121, -102
27768, -403, 409, -207, 36750, 170520, -67410, -226, 130, -87
27769, -413, 442, -188, 29120, 150640, -62860, -223, 126, -79
27770, -78, 803, -315, 19740, 129430, -53410, -231, 109, -55
27771, -326, 1020, -370, 18550, 135520, -49770, -223, 105, -52
27772, -1306, 1800, -497, 12460, 126350, -54180, -231, 114, -39
27773, -2020, 2018, -674, -560, 75950, -66080, -229, 108, -39
27774, -1142, 1537, -270, -13440, 25830, -76230, -226, 99, -37
27775, 43, 2277, -677, -21210, -19950, -79730, -223, 96, -45
27776, -155, 1928, -615, -14350, 3360, -76230, -217, 81, -60
27777, -255, 841, -311, -8890, 19600, -73150, -223, 88, -49
27778, -486, 394, -352, -8050, 20720, -68320, -216, 79, -36
27779, 69, 426, -239, -8190, 20930, -62440, -217, 82, -49
27780, 76, 487, -239, -5180, 47320, -47950, -223, 82, -37
27781, -427, 512, -344, -3710, 67830, -42420, -219, 73, -43
27782, -674, 629, -343, -6440, 60130, -40040, -216, 76, -37
27783, -1690, 1039, -593, -11410, 57050, -46060, -219, 78, -42
27784, -733, 839, -452, -17500, 33390, -61530, -216, 63, -43
27785, -50, 572, -364, -15540, 54390, -59430, -214, 64, -39
27786, 269, 199, -355, -13580, 81830, -52570, -223, 61, -24
27787, 657, -21, -340, -10640, 87220, -41510, -214, 52, -28
27788, 29, 488, -583, -3570, 121170, -35070, -219, 52, -16
27789, 38, 398, -518, 8680, 170520, -24150, -208, 55, -9
27790, -1450, 972, -855, 8190, 171080, -25970, -228, 52, 15
27791, -2836, 2467, -1376, -2870, 136430, -43610, -225, 46, 30
27792, -3297, 3028, -2848, -14980, 37030, -70770, -226, 43, 16
27793, 1285, 1264, -888, -13160, 110530, -72030, -226, 43, 28
27794, 122, 328, -848, 1330, 118090, -61460, -214, 37, 37
27795, -247, 333, -780, 2520, 129290, -58940, -226, 36, 40
27796, -513, 411, -805, -280, 109830, -57610, -231, 31, 43
27797, -330, 431, -629, -1820, 112910, -59360, -225, 16, 66
27798, -323, 670, -657, -7980, 84350, -62650, -241, 10, 66
27799, -1157, 875, -934, -13230, 65730, -66430, -238, 19, 72
27800, -774, 725, -690, -20440, 32970, -71680, -232, 12, 76
27801, -707, 693, -748, -26110, 21000, -75320, -244, 6, 70
27802, -131, 489, -521, -28770, 15820, -74620, -222, 3, 73
27803, -460, 321, -477, -31920, 17150, -70210, -232, 7, 79
27804, -778, 391, -559, -35210, 8890, -70560, -234, -4, 73
27805, -902, 440, -596, -40600, -22890, -71330, -240, -7, 72
27806, -680, 409, -566, -44240, -35700, -71960, -225, -18, 61
27807, -610, 351, -600, -44940, -43960, -66430, -229, -12, 55
27808, -787, 225, -645, -43260, -46690, -62930, -231, -12, 52
27809, -783, 116, -573, -40810, -49070, -61180, -214, -28, 46
27810, -1375, 180, -802, -36540, -47460, -63980, -226, -24, 45
27811, -2079, 398, -1125, -26390, -24150, -70070, -223, -27, 36
27812, -1043, 8, -598, 0, 44870, -74970, -217, -30, 37
27813, -701, -85, -346, 4340, 47600, -73010, -226, -33, 58
27814, -845, -85, -296, 5320, 56140, -70840, -226, -37, 54
27815, -718, -95, -194, 4340, 48230, -67410, -226, -40, 37
27816, -827, -44, -163, 4690, 52850, -65030, -222, -45, 58
27817, -1084, -75, -122, 7420, 51660, -61810, -232, -54, 55
27818, -1642, -50, -280, 12180, 63490, -62580, -226, -51, 51
27819, -1249, -50, -266, 19250, 60060, -63770, -234, -55, 64
27820, -605, -58, -144, 26530, 78890, -61600, -240, -57, 75
27821, -1005, -37, -225, 31920, 78120, -56420, -234, -63, 70
27822, -1324, -88, -281, 30030, 61250, -58310, -234, -72, 73
27823, -1258, 31, -343, 27580, 37450, -61320, -241, -79, 72
27824, -1165, 183, -384, 27370, 22890, -63070, -246, -75, 75
27825, -219, 189, -375, 30310, 5950, -64610, -249, -88, 79
27826, -3997, -992, -3997, -44520, 243110, 93100, -270, -67, 109
27827, 1138, 855, 484, 66430, -416990, -114660, -243, -72, 88
27828, -600, -492, -1899, -27580, 24710, -53970, -243, -82, 78
27829, 2151, 685, 1488, 25690, -9170, -31780, -252, -97, 84
27830, -2340, 600, -2223, -910, 42490, 8050, -252, -85, 84
27831, -3529, 803, -2478, -10920, 12600, -7980, -246, -87, 93
27832, 822, 833, 1764, 3010, -17570, -21070, -241, -94, 91
27833, -2130, 448, -1938, -6790, -83650, -7910, -241, -94, 76
27834, 188, 152, 638, -7210, 64820, -10010, -250, -96, 81
27835, -1055, 96, -711, -8260, 79030, 5460, -247, -97, 75
27836, -603, 244, -273, 7000, -82390, -7630, -247, -96, 75
27837, -1300, 205, -638, -2380, 54670, 5740, -246, -85, 76
27838, -407, 336, 118, 4550, -12320, -1680, -246, -88, 79
27839, -1172, 498, -605, 1470, -700, -770, -247, -94, 76
27840, -922, 317, -328, -770, 7490, 560, -253, -90, 81
27841, -759, 313, -248, -70, -8890, -1330, -255, -97, 69
27842, -1143, 352, -518, -1330, -2380, 210, -246, -94, 87
27843, -724, 302, -235, -700, 3710, 350, -244, -96, 78
27844, -753, 337, -268, 630, -8890, -1050, -244, -82, 78
27845, -785, 295, -293, 560, -630, -140, -250, -94, 87
27846, -1026, 334, -431, 210, 1400, 210, -247, -91, 76
27847, -812, 377, -354, 0, 2660, 140, -241, -88, 81
27848, -860, 339, -302, 70, -4830, -630, -252, -99, 78
27849, -917, 283, -290, -210, -1120, -70, -249, -91, 82
27850, -914, 328, -369, 0, 1050, 210, -250, -88, 82
27851, -847, 332, -317, 280, 980, -70, -249, -94, 73
27852, -869, 370, -342, 420, -770, -280, -244, -97, 76
27853, -897, 325, -325, 0, 1750, 0, -252, -96, 84
27854, -932, 316, -354, -210, 910, 210, -246, -88, 81
27855, -834, 357, -337, 0, -1050, -210, -246, -90, 76
27856, -870, 344, -321, -70, -560, -280, -252, -91, 82
27857, -879, 334, -326, 0, 630, -280, -252, -93, 81
27858, -897, 302, -324, 70, 630, 70, -243, -90, 85
27859, -860, 350, -343, 70, 280, 0, -247, -93, 75
27860, -871, 356, -336, -70, -840, -280, -249, -96, 90
27861, -886, 332, -333, -210, 350, -210, -252, -90, 81
27862, -895, 307, -324, -70, -350, -140, -246, -97, 78
27863, -864, 339, -329, 210, 140, 0, -244, -94, 81
27864, -865, 358, -343, 0, 70, -140, -238, -93, 78
27865, -891, 328, -331, 0, 140, -280, -253, -100, 84
27866, -892, 324, -341, -140, 140, -140, -241, -94, 85
27867, -905, 315, -334, 0, 350, 140, -252, -93, 78
27868, -873, 340, -327, 0, -70, -140, -235, -99, 81
27869, -873, 344, -339, -70, 70, -280, -247, -94, 90
27870, -900, 313, -326, 70, 210, -140, -252, -96, 82
27871, -891, 332, -345, 0, 420, 70, -247, -97, 72
27872, -881, 330, -331, 0, 350, 70, -243, -91, 79
27873, -883, 330, -330, -70, 140, -210, -243, -81, 76
27874, -883, 329, -334, 0, -210, -210, -253, -97, 85
27875, -899, 317, -330, 0, 560, 70, -241, -94, 85
27876, -874, 338, -338, 140, 280, 70, -249, -100, 87
27877, -875, 344, -339, 70, -140, -210, -244, -96, 75
27878, -890, 325, -331, -140, 70, -140, -255, -90, 84
27879, -890, 327, -334, 0, 70, -70, -253, -88, 78
27880, -883, 330, -335, 0, 490, 70, -244, -94, 84
27881, -874, 340, -336, 0, 70, -70, -249, -93, 70
27882, -884, 330, -333, 0, -140, -210, -247, -100, 85
27883, -891, 328, -337, 0, 350, -70, -247, -82, 76
27884, -886, 328, -332, 0, 140, 0, -255, -91, 85
27885, -875, 340, -339, 70, 280, 0, -259, -90, 75
27886, -878, 335, -333, 70, 0, -140, -241, -96, 79
27887, -891, 324, -330, 0, 140, -140, -244, -94, 85
27888, -883, 334, -338, -70, 350, 0, -250, -88, 91
27889, -884, 330, -332, 70, 210, 0, -250, -96, 75
27890, -872, 342, -339, 0, 70, -70, -247, -88, 76
27891, -882, 335, -337, 0, 70, -140, -252, -96, 82
27892, -891, 323, -331, 70, 350, 0, -244, -93, 88
27893, -880, 337, -340, 0, 280, 0, -243, -88, 73
27894, -882, 333, -334, 0, 280, 0, -246, -99, 75
27895, -874, 341, -339, 0, -70, -140, -246, -87, 84
27896, -883, 332, -335, 0, 140, -70, -238, -87, 79
27897, -888, 327, -333, 0, 350, 70, -249, -91, 87
27898, -876, 339, -338, 0, 210, -70, -250, -91, 76
27899, -879, 335, -334, 0, 210, -140, -259, -88, 81
27900, -880, 335, -334, 70, 0, -140, -249, -91, 81
27901, -886, 331, -335, 70, 210, -70, -246, -93, 85
27902, -881, 334, -335, -70, 350, 70, -246, -96, 76
27903, -874, 337, -335, 0, 70, -70, -250, -97, 69
27904, -881, 335, -336, 0, 140, -70, -252, -96, 73
27905, -886, 331, -336, -70, 280, -70, -249, -94, 85
27906, -883, 332, -334, 70, 210, 0, -244, -96, 76
27907, -877, 340, -338, 0, 140, 0, -250, -93, 79
27908, -879, 334, -333, 0, 0, -140, -247, -88, 79
27909, -883, 333, -336, 0, 210, -140, -249, -94, 85
27910, -882, 335, -338, 0, 280, 0, -244, -87, 84
27911, -879, 333, -333, 0, 210, -70, -249, -96, 84
27912, -877, 338, -338, -70, 70, -70, -246, -90, 90
27913, -885, 330, -332, 0, 140, -140, -244, -91, 76
27914, -884, 333, -336, 0, 280, 0, -246, -87, 85
27915, -877, 337, -338, 0, 210, -70, -253, -93, 85
27916, -880, 334, -334, -70, 140, -70, -237, -91, 88
27917, -880, 335, -337, -70, 70, -140, -249, -82, 75
27918, -888, 328, -332, -70, 140, -70, -249, -90, 81
27919, -882, 332, -334, 0, 210, 0, -244, -91, 79
27920, -877, 337, -337, 0, 140, -70, -255, -90, 90
27921, -881, 333, -334, 0, 210, -140, -252, -99, 87
27922, -883, 332, -335, 0, 70, -70, -244, -91, 85
27923, -886, 330, -334, 0, 280, -70, -250, -90, 87
27924, -880, 336, -335, -70, 280, -70, -252, -85, 76
27925, -879, 335, -334, 0, 70, -70, -231, -87, 82
27926, -884, 332, -335, 0, 140, -70, -243, -94, 79
27927, -885, 330, -333, 0, 140, -70, -244, -102, 81
27928, -883, 333, -336, -70, 140, -70, -253, -91, 87
27929, -878, 336, -336, -70, 70, -70, -253, -91, 72
27930, -883, 332, -333, 0, 210, -140, -252, -93, 76
27931, -884, 332, -336, -70, 70, -70, -247, -93, 72
27932, -886, 331, -335, 0, 210, -70, -249, -87, 87
27933, -879, 334, -333, 70, 70, -140, -241, -108, 82
27934, -880, 335, -335, -70, 140, -140, -246, -87, 75
27935, -886, 330, -333, 0, 210, -70, -249, -94, 82
27936, -883, 333, -335, 0, 280, 0, -250, -90, 90
27937, -882, 332, -334, 70, 280, 0, -252, -93, 93
27938, -881, 333, -333, 0, 140, -140, -244, -91, 88
27939, -883, 334, -336, 0, 210, -70, -241, -97, 82
27940, -886, 330, -333, 70, 280, -70, -247, -97, 87
27941, -882, 333, -335, 70, 210, -70, -243, -91, 90
27942, -881, 334, -335, -70, 140, -140, -255, -93, 76
27943, -884, 331, -333, -70, 140, -140, -246, -99, 79
27944, -883, 332, -334, 0, 210, -70, -250, -99, 90
27945, -884, 332, -335, 0, 280, -70, -250, -93, 73
27946, -880, 334, -335, 0, 140, -70, -249, -96, 82
27947, -882, 333, -334, 0, 140, -140, -240, -93, 84
27948, -884, 331, -334, 70, 210, -70, -250, -90, 79
27949, -884, 331, -334, 0, 210, 0, -243, -93, 81
27950, -881, 333, -335, 70, 210, 0, -249, -93, 88
27951, -880, 334, -335, 0, 210, -70, -250, -96, 84
27952, -884, 331, -335, 0, 140, -70, -241, -93, 82
27953, -884, 333, -335, 0, 140, -70, -244, -90, 72
27954, -882, 333, -334, 70, 210, 0, -247, -91, 79
27955, -879, 335, -335, 0, 210, -70, -246, -99, 82
27956, -881, 333, -335, 0, 210, -140, -241, -91, 85
27957, -884, 331, -334, 0, 140, -70, -238, -93, 81
27958, -881, 334, -335, 0, 210, -70, -253, -90, 78
27959, -881, 333, -334, 0, 210, -70, -249, -100, 79
27960, -880, 335, -335, 0, 140, -70, -250, -90, 84
27961, -883, 333, -335, -70, 210, -70, -241, -99, 84
27962, -883, 332, -335, 0, 210, -70, -246, -94, 93
27963, -880, 334, -335, 0, 140, -70, -247, -97, 72
27964, -881, 334, -335, 0, 140, -70, -246, -96, 87
27965, -881, 334, -335, 70, 140, -70, -243, -85, 76
27966, -884, 332, -335, 70, 140, -70, -244, -91, 81
27967, -882, 333, -334, 0, 210, -70, -253, -81, 81
27968, -881, 334, -335, 0, 210, -70, -256, -88, 76
27969, -882, 334, -335, 70, 210, -70, -250, -96, 78
27970, -884, 332, -335, 70, 210, 0, -246, -94, 99
27971, -882, 333, -335, 0, 210, 0, -249, -94, 79
27972, -880, 335, -335, 0, 210, -70, -258, -94, 85
27973, -881, 333, -334, -70, 140, -70, -241, -91, 84
27974, -883, 333, -335, 0, 140, -70, -243, -90, 85
27975, -883, 332, -335, 70, 140, -70, -249, -88, 88
27976, -882, 333, -334, 0, 140, -70, -243, -97, 85
27977, -880, 334, -335, 0, 140, -70, -249, -93, 85
27978, -882, 333, -334, 70, 140, -70, -247, -99, 81
27979, -883, 333, -334, 0, 210, -70, -253, -97, 70
27980, -881, 334, -335, 0, 210, -70, -244, -103, 87
27981, -880, 334, -335, 0, 210, -70, -252, -90, 82
27982, -881, 334, -336, -70, 210, -70, -244, -97, 79
27983, -883, 332, -334, -70, 210, -70, -252, -93, 76
27984, -882, 333, -334, -70, 140, -70, -250, -93, 87
27985, -880, 334, -335, 0, 210, -70, -241, -82, 82
27986, -880, 333, -334, -70, 210, -140, -253, -91, 87
27987, -882, 333, -335, 70, 210, -140, -244, -91, 81
27988, -882, 332, -335, 0, 140, -70, -246, -97, 78
27989, -882, 334, -335, -70, 210, 0, -250, -88, 91
27990, -882, 333, -336, 0, 140, -70, -246, -93, 78
27991, -882, 333, -334, 0, 210, -70, -249, -96, 90
27992, -882, 333, -334, 0, 140, -70, -241, -103, 87
27993, -882, 333, -335, 0, 210, -70, -244, -91, 84
27994, -881, 334, -335, -70, 140, -70, -247, -100, 82
27995, -882, 333, -335, -70, 140, -70, -255, -96, 79
27996, -883, 333, -335, 0, 210, -70, -249, -90, 84
27997, -883, 332, -335, 70, 210, -70, -249, -84, 82
27998, -882, 334, -335, 0, 210, -70, -244, -94, 78
27999, -882, 333, -335, 0, 210, -70, -246, -91, 82
28000, -883, 333, -335, 0, 140, -70, -249, -99, 84
28001, -883, 333, -336, 0, 140, -70, -249, -85, 81
28002, -882, 333, -335, 0, 210, -70, -246, -102, 73
28003, -881, 333, -334, 0, 140, -70, -252, -93, 82
28004, -882, 333, -335, 0, 70, -70, -252, -93, 82
28005, -883, 333, -334, 0, 210, -70, -240, -96, 84
28006, -882, 333, -335, -70, 140, -70, -247, -96, 85
28007, -881, 333, -334, 0, 210, -70, -246, -96, 78
28008, -882, 333, -335, 0, 140, -140, -247, -91, 76
28009, -882, 334, -334, 0, 140, -70, -241, -84, 75
28010, -884, 332, -334, 0, 210, 0, -237, -90, 91
28011, -882, 334, -335, 70, 140, -70, -246, -91, 81
28012, -882, 333, -335, 0, 210, -140, -246, -90, 91
28013, -882, 332, -335, 0, 210, -70, -255, -93, 81
28014, -883, 333, -335, 70, 140, -70, -250, -84, 79
28015, -882, 333, -335, 0, 210, -70, -238, -93, 82
28016, -882, 333, -335, 0, 140, -70, -244, -84, 94
28017, -882, 332, -335, 70, 140, -70, -243, -97, 75
28018, -881, 332, -335, -70, 280, -70, -247, -99, 85
28019, -882, 333, -335, 0, 210, -70, -252, -93, 75
28020, -881, 334, -336, 0, 210, -70, -250, -85, 87
28021, -882, 334, -335, 70, 210, -70, -246, -96, 79
28022, -883, 333, -335, 0, 140, -70, -243, -88, 90
28023, -881, 333, -335, 0, 140, 0, -241, -100, 84
28024, -883, 334, -334, 0, 210, -70, -241, -88, 81
28025, -881, 334, -336, 0, 280, -70, -249, -94, 73
28026, -882, 333, -334, -70, 140, -70, -250, -97, 82
28027, -883, 333, -334, 0, 140, -70, -249, -99, 78
28028, -881, 333, -334, 0, 140, -70, -250, -99, 84
28029, -882, 333, -335, 0, 140, -70, -246, -97, 88
28030, -881, 333, -334, -70, 140, -70, -244, -90, 81
28031, -882, 333, -335, 70, 210, -70, -244, -84, 75
28032, -881, 334, -334, 70, 280, -70, -246, -88, 82
28033, -881, 334, -335, 0, 140, -70, -240, -93, 75
28034, -883, 333, -335, 0, 140, -70, -258, -91, 87
28035, -881, 334, -335, 0, 140, -70, -249, -93, 79
28036, -882, 334, -334, -70, 140, -140, -250, -87, 73
28037, -882, 333, -334, -70, 210, -70, -250, -87, 76
28038, -882, 333, -335, 0, 140, -70, -243, -87, 88
28039, -882, 333, -335, 0, 210, -70, -249, -93, 76
28040, -882, 333, -335, 0, 140, -70, -238, -94, 81
28041, -882, 333, -335, -70, 210, 0, -241, -91, 85
28042, -882, 334, -335, 0, 140, -70, -246, -90, 84
28043, -882, 333, -335, 70, 140, -70, -243, -99, 76
28044, -882, 333, -335, 70, 210, -70, -246, -102, 82
28045, -881, 334, -335, 70, 70, -70, -243, -88, 79
28046, -882, 333, -335, -70, 140, -70, -247, -88, 81
28047, -882, 334, -334, 0, 140, -70, -240, -100, 82
28048, -883, 332, -334, 0, 140, -70, -247, -81, 90
28049, -882, 333, -335, 0, 140, -70, -241, -87, 84
28050, -882, 334, -335, 0, 210, -70, -249, -90, 79
28051, -882, 333, -335, 0, 70, -70, -241, -96, 76
28052, -882, 333, -334, 0, 140, -70, -246, -84, 88
28053, -882, 333, -335, 0, 140, -70, -253, -94, 84
28054, -881, 333, -335, 0, 210, -70, -252, -94, 75
28055, -881, 333, -335, 0, 140, -140, -252, -94, 81
28056, -882, 332, -335, 0, 210, -70, -252, -90, 82
28057, -883, 333, -334, 0, 210, -70, -238, -96, 70
28058, -882, 334, -335, 0, 210, -70, -247, -93, 81
28059, -882, 333, -335, 70, 210, -70, -240, -93, 79
28060, -882, 333, -335, 0, 210, -70, -237, -96, 81
28061, -882, 333, -334, 0, 210, -70, -246, -94, 75
28062, -882, 333, -335, 0, 210, -70, -255, -87, 84
28063, -882, 333, -334, 0, 140, -70, -244, -87, 70
28064, -882, 333, -335, 0, 210, -70, -243, -81, 84
28065, -883, 333, -335, 70, 210, -70, -241, -93, 82
28066, -883, 334, -333, 0, 210, -70, -246, -100, 79
28067, -882, 333, -335, 0, 210, -70, -243, -97, 81
28068, -882, 334, -335, -70, 140, -70, -250, -93, 84
28069, -882, 333, -334, 0, 210, -70, -247, -87, 79
28070, -883, 333, -335, 0, 210, 0, -256, -94, 81
28071, -882, 333, -334, 0, 140, -70, -238, -97, 75
28072, -882, 334, -335, 0, 210, -70, -241, -90, 81
28073, -882, 333, -334, -70, 140, -70, -237, -90, 84
28074, -883, 333, -335, 70, 140, -140, -243, -94, 85
28075, -882, 333, -335, 0, 140, -70, -240, -91, 73
28076, -882, 334, -335, 0, 210, -70, -246, -93, 66
28077, -882, 333, -335, 0, 140, -70, -244, -91, 76
28078, -882, 333, -334, -70, 140, -70, -246, -93, 84
28079, -882, 333, -335, 0, 210, -70, -243, -97, 78
28080, -883, 333, -335, 0, 140, -70, -249, -87, 78
28081, -882, 333, -335, -70, 140, -70, -244, -91, 75
28082, -882, 333, -335, 0, 210, 0, -246, -96, 82
28083, -882, 333, -334, 70, 140, -70, -244, -85, 88
28084, -882, 332, -335, 0, 210, -70, -247, -103, 78
28085, -882, 333, -335, 0, 210, -70, -240, -103, 75
28086, -882, 333, -335, 0, 210, 0, -244, -102, 72
28087, -882, 333, -336, 0, 210, -70, -249, -93, 78
28088, -882, 333, -335, 0, 140, -70, -247, -91, 76
28089, -881, 333, -334, 0, 70, -70, -249, -91, 78
28090, -882, 333, -335, 70, 70, -70, -252, -93, 87
28091, -882, 334, -334, -70, 70, -70, -240, -93, 84
28092, -882, 333, -334, 0, 140, -70, -250, -96, 79
28093, -882, 333, -334, 0, 210, -70, -246, -91, 85
28094, -882, 333, -335, -70, 140, -70, -249, -94, 85
28095, -882, 333, -335, 70, 140, -70, -241, -88, 76
28096, -882, 333, -334, 0, 140, -70, -246, -96, 78
28097, -882, 333, -335, 0, 210, -70, -259, -87, 76
28098, -882, 333, -334, -70, 210, -70, -249, -97, 82
28099, -882, 333, -335, 0, 140, -140, -240, -84, 85
28100, -882, 334, -334, 0, 140, -70, -246, -99, 81
28101, -881, 334, -334, 70, 210, -70, -246, -91, 78
28102, -882, 333, -335, 0, 140, -70, -246, -96, 76
28103, -882, 332, -334, 70, 140, -70, -253, -90, 82
28104, -882, 333, -335, -70, 210, -140, -246, -91, 76
28105, -882, 333, -335, 0, 210, -70, -243, -91, 76
28106, -882, 333, -335, 0, 140, -70, -241, -97, 84
28107, -882, 333, -335, 0, 210, -70, -244, -85, 87
28108, -883, 333, -334, 0, 210, -70, -253, -90, 81
28109, -882, 334, -335, 70, 140, -70, -246, -87, 72
28110, -882, 333, -335, 0, 210, -70, -253, -90, 84
28111, -882, 334, -335, 70, 210, -70, -243, -87, 82
28112, -882, 333, -335, 70, 210, -140, -249, -96, 87
28113, -882, 334, -335, 70, 210, -70, -243, -99, 79
28114, -882, 333, -334, 0, 140, -70, -243, -93, 79
28115, -882, 333, -335, 0, 210, -70, -247, -91, 78
28116, -882, 334, -334, 0, 210, -70, -246, -100, 84
28117, -882, 333, -334, 0, 210, -70, -255, -91, 81
28118, -882, 333, -335, -70, 210, -70, -246, -90, 81
28119, -882, 334, -335, 0, 210, -70, -250, -97, 84
28120, -881, 333, -334, 0, 210, -70, -256, -90, 84
28121, -882, 333, -335, 0, 210, -140, -247, -93, 79
28122, -882, 333, -335, 0, 210, -70, -244, -97, 76
28123, -882, 334, -334, 0, 140, -70, -240, -96, 73
28124, -882, 333, -335, 0, 210, -70, -241, -87, 79
28125, -881, 333, -334, 0, 140, -70, -244, -94, 76
28126, -882, 333, -335, 0, 140, -70, -238, -91, 73
28127, -882, 333, -335, 0, 140, -70, -237, -99, 81
28128, -883, 333, -335, 0, 140, -70, -241, -93, 90
28129, -882, 333, -334, 0, 210, 0, -243, -88, 76
28130, -882, 333, -333, 0, 140, -70, -241, -96, 87
28131, -882, 333, -334, -70, 140, -70, -235, -90, 82
28132, -881, 333, -336, -70, 210, -70, -243, -93, 85
28133, -882, 333, -334, -70, 140, -70, -244, -96, 76
28134, -882, 332, -335, 70, 140, 0, -240, -87, 82
28135, -882, 333, -334, 0, 140, -70, -252, -99, 85
28136, -882, 333, -334, 0, 140, -70, -252, -88, 78
28137, -882, 333, -335, 70, 140, -70, -243, -99, 82
28138, -882, 333, -335, 0, 140, -70, -253, -90, 81
28139, -883, 333, -335, 70, 140, -70, -238, -88, 76
28140, -882, 334, -335, 0, 210, -70, -256, -94, 82
28141, -882, 333, -335, -70, 140, -70, -246, -96, 84
28142, -882, 333, -334, 0, 140, -70, -244, -79, 78
28143, -883, 333, -334, 0, 210, -70, -247, -85, 82
28144, -881, 333, -334, 0, 140, -70, -247, -93, 81
28145, -882, 333, -334, -70, 210, -70, -240, -94, 72
28146, -882, 333, -335, 70, 210, -70, -247, -91, 76
28147, -882, 333, -335, 70, 140, -70, -246, -99, 76
28148, -883, 333, -334, 0, 210, -70, -249, -93, 85
28149, -882, 333, -334, 0, 140, 0, -247, -90, 78
28150, -882, 333, -335, 70, 210, -70, -241, -84, 84
28151, -882, 333, -335, -70, 70, -70, -247, -93, 81
28152, -882, 332, -334, 0, 140, -70, -252, -96, 85
28153, -881, 334, -334, 0, 140, -70, -241, -93, 84
28154, -882, 333, -335, -70, 210, -140, -250, -97, 79
28155, -883, 334, -335, -140, 210, -140, -243, -100, 78
28156, -882, 333, -336, 70, 140, -70, -246, -90, 87
28157, -882, 333, -335, 0, 210, -70, -241, -93, 85
28158, -882, 333, -335, -70, 140, -70, -238, -93, 79
28159, -882, 333, -335, 0, 210, -70, -244, -102, 81
28160, -882, 333, -334, 0, 140, -70, -243, -96, 88
28161, -881, 333, -335, 0, 210, -70, -246, -90, 76
28162, -882, 333, -334, 0, 140, 0, -246, -87, 82
28163, -881, 333, -335, 0, 210, -70, -252, -100, 78
28164, -882, 334, -335, 0, 140, -70, -252, -97, 66
28165, -883, 332, -334, 0, 70, -70, -237, -87, 78
28166, -882, 333, -335, 0, 210, -70, -249, -93, 88
28167, -882, 333, -335, 0, 210, -70, -249, -91, 76
28168, -882, 332, -334, 0, 210, -70, -240, -90, 79
28169, -882, 333, -334, 0, 140, -70, -250, -93, 78
28170, -882, 332, -334, -70, 210, -70, -247, -96, 79
28171, -882, 334, -335, 70, 140, -70, -244, -88, 79
28172, -882, 334, -335, 0, 210, -70, -255, -91, 76
28173, -882, 333, -335, 0, 140, -70, -240, -96, 76
28174, -882, 333, -335, 0, 210, -70, -244, -96, 76
28175, -883, 333, -334, 0, 140, -70, -247, -88, 75
28176, -882, 333, -335, 0, 140, -70, -250, -97, 88
28177, -882, 333, -335, 0, 210, 0, -252, -91, 81
28178, -882, 333, -336, 0, 140, -70, -244, -94, 82
28179, -882, 333, -335, 0, 210, -70, -246, -88, 79
28180, -882, 333, -335, 0, 210, 0, -249, -100, 88
28181, -882, 334, -335, 0, 210, -70, -247, -94, 70
28182, -882, 333, -334, 0, 140, -70, -250, -94, 82
28183, -882, 333, -335, 70, 140, -70, -255, -90, 73
28184, -881, 333, -335, 0, 210, -70, -244, -91, 84
28185, -881, 333, -334, -70, 140, -70, -247, -93, 79
28186, -882, 334, -335, 0, 140, -70, -246, -90, 79
28187, -882, 334, -335, 70, 140, -70, -249, -90, 81
28188, -882, 333, -335, 0, 210, -70, -240, -97, 78
28189, -882, 334, -335, 70, 140, -70, -249, -88, 81
28190, -881, 333, -334, 0, 140, -70, -240, -87, 84
28191, -882, 333, -334, 0, 210, -70, -247, -87, 73
28192, -882, 334, -334, 0, 140, -70, -244, -90, 82
28193, -881, 334, -335, 0, 140, -70, -246, -94, 76
28194, -882, 333, -335, 0, 140, -70, -246, -88, 82
28195, -882, 334, -335, 0, 210, -70, -247, -88, 81
28196, -882, 333, -335, 0, 210, -70, -237, -100, 79
28197, -883, 333, -335, 0, 140, -70, -249, -90, 81
28198, -882, 333, -336, -70, 210, -140, -249, -93, 79
28199, -882, 334, -335, 0, 140, -70, -238, -94, 73
28200, -882, 334, -334, 0, 140, -70, -247, -94, 75
28201, -882, 333, -335, 0, 210, -140, -246, -88, 81
28202, -882, 333, -335, -70, 210, -70, -232, -96, 75
28203, -881, 333, -335, 70, 210, -70, -253, -94, 81
28204, -882, 333, -335, 0, 140, -70, -247, -85, 81
28205, -882, 333, -336, 0, 140, 0, -255, -91, 73
28206, -882, 333, -335, 0, 210, -70, -252, -93, 75
28207, -882, 333, -335, 0, 140, -70, -250, -82, 85
28208, -882, 333, -335, 70, 140, -70, -246, -90, 70
28209, -883, 334, -334, -70, 140, -70, -240, -90, 72
28210, -882, 333, -334, 0, 210, -70, -249, -93, 79
28211, -882, 333, -335, 0, 140, -70, -247, -94, 88
28212, -882, 333, -335, 0, 140, -70, -250, -85, 85
28213, -882, 333, -335, -70, 210, -140, -244, -99, 81
28214, -883, 333, -335, 0, 210, -70, -249, -87, 81
28215, -883, 333, -335, 0, 140, -70, -246, -97, 78
28216, -883, 334, -334, 0, 140, -70, -252, -87, 78
28217, -882, 333, -335, 0, 140, -70, -238, -87, 79
28218, -882, 333, -335, 0, 140, -70, -240, -88, 81
28219, -882, 333, -335, -70, 140, -70, -250, -100, 78
28220, -881, 333, -334, 0, 140, -70, -246, -84, 76
28221, -882, 333, -335, 0, 140, -70, -249, -96, 87
28222, -881, 334, -334, -70, 70, -70, -243, -94, 81
28223, -881, 333, -334, -70, 140, -70, -247, -93, 69
28224, -882, 333, -335, 70, 140, -70, -249, -97, 78
28225, -882, 333, -335, 0, 210, -70, -237, -94, 76
28226, -882, 333, -335, 0, 140, -70, -256, -87, 82
28227, -882, 333, -335, 70, 140, -70, -246, -90, 85
28228, -881, 334, -335, 0, 210, -70, -237, -94, 81
28229, -882, 333, -334, 0, 210, -70, -241, -90, 72
28230, -882, 333, -335, 0, 140, -70, -250, -88, 81
28231, -881, 333, -334, 0, 210, -70, -250, -97, 76
28232, -881, 333, -334, 0, 140, -70, -250, -99, 76
28233, -882, 333, -335, -70, 210, -70, -246, -90, 70
28234, -882, 333, -334, 0, 210, -70, -246, -93, 85
28235, -882, 333, -334, 70, 210, -70, -247, -97, 78
28236, -882, 333, -335, 70, 140, -70, -253, -82, 78
28237, -882, 333, -334, 0, 210, -70, -244, -97, 84
28238, -882, 333, -335, -70, 210, -70, -249, -91, 79
28239, -882, 333, -335, 0, 140, -70, -252, -94, 79
28240, -882, 333, -335, 0, 140, -140, -247, -91, 84
28241, -882, 333, -335, 0, 140, -70, -252, -91, 76
28242, -882, 333, -335, -70, 140, -70, -247, -97, 69
28243, -882, 333, -335, 0, 140, -70, -241, -93, 78
28244, -882, 333, -335, 70, 70, -70, -255, -85, 82
28245, -882, 333, -335, -70, 140, -70, -247, -91, 79
28246, -882, 333, -335, -70, 210, -70, -247, -93, 79
28247, -882, 333, -335, 0, 210, -70, -247, -93, 87
28248, -882, 333, -335, -70, 210, -70, -250, -91, 87
28249, -882, 333, -334, 0, 140, -70, -255, -91, 79
28250, -882, 334, -335, 0, 210, -140, -253, -87, 84
28251, -883, 334, -335, -70, 140, -70, -241, -91, 82
28252, -882, 333, -335, -70, 140, -70, -249, -99, 76
28253, -883, 333, -335, 0, 140, 0, -246, -97, 78
28254, -882, 334, -335, 0, 140, -140, -247, -91, 84
28255, -881, 334, -334, 0, 210, -70, -244, -97, 76
28256, -883, 333, -335, 0, 140, -70, -241, -85, 79
28257, -882, 334, -335, 0, 210, -70, -253, -97, 78
28258, -882, 333, -335, 0, 210, -70, -250, -87, 73
28259, -882, 333, -335, -70, 140, -70, -246, -96, 78
28260, -883, 334, -335, 0, 140, -70, -244, -88, 78
28261, -882, 333, -335, 0, 140, -140, -246, -96, 75
28262, -882, 333, -334, 0, 140, 0, -252, -94, 75
28263, -882, 333, -335, 0, 210, -70, -247, -88, 75
28264, -882, 333, -334, 0, 140, -70, -243, -90, 76
28265, -882, 333, -335, 0, 140, -70, -252, -105, 76
28266, -882, 333, -335, 0, 210, -70, -252, -91, 78
28267, -881, 333, -335, 70, 210, -70, -246, -90, 82
28268, -882, 333, -335, 0, 140, -70, -250, -87, 76
28269, -882, 332, -335, 0, 140, -70, -243, -91, 72
28270, -882, 333, -335, -70, 210, -70, -241, -88, 84
28271, -882, 333, -334, 70, 210, -70, -249, -87, 69
28272, -881, 334, -335, 0, 210, -70, -246, -88, 79
28273, -883, 333, -335, 0, 140, -70, -252, -93, 78
28274, -883, 333, -335, -70, 140, -70, -243, -87, 90
28275, -882, 333, -335, 0, 140, -70, -244, -87, 78
28276, -881, 334, -336, 0, 140, -70, -247, -100, 76
28277, -881, 333, -335, 70, 140, -70, -246, -94, 85
28278, -882, 333, -335, 0, 210, -70, -247, -91, 76
28279, -882, 334, -335, 0, 140, -70, -253, -99, 79
28280, -881, 333, -335, 0, 140, -70, -243, -88, 78
28281, -882, 333, -335, 70, 210, -70, -246, -96, 72
28282, -882, 333, -335, 0, 210, -70, -247, -87, 91
28283, -882, 333, -335, -70, 210, -70, -253, -91, 85
28284, -882, 333, -335, 0, 140, -70, -250, -96, 75
28285, -883, 333, -335, -70, 280, -70, -253, -97, 85
28286, -882, 333, -334, 0, 210, -70, -241, -88, 70
28287, -882, 333, -334, 0, 70, -70, -243, -96, 76
28288, -882, 333, -334, 0, 140, -70, -249, -100, 76
28289, -882, 333, -335, 0, 210, -70, -255, -97, 82
28290, -882, 333, -335, 0, 210, -70, -249, -91, 76
28291, -882, 334, -335, 0, 210, -70, -247, -91, 66
28292, -882, 333, -335, 0, 140, -70, -241, -94, 76
28293, -882, 333, -335, 70, 140, -70, -255, -87, 73
28294, -882, 333, -335, 0, 210, -70, -247, -85, 87
28295, -881, 333, -335, 0, 210, -70, -249, -87, 84
28296, -882, 333, -335, 70, 140, -70, -243, -91, 82
28297, -882, 333, -334, 70, 210, -70, -249, -90, 81
28298, -882, 332, -335, 0, 210, -70, -244, -106, 81
28299, -882, 333, -335, 0, 210, -70, -258, -94, 78
28300, -881, 334, -335, 0, 140, -70, -243, -106, 75
28301, -882, 333, -335, -70, 140, -70, -247, -93, 75
28302, -882, 334, -335, 0, 210, -70, -247, -91, 73
28303, -882, 333, -334, 0, 140, -70, -243, -87, 82
28304, -882, 333, -334, 0, 280, -70, -238, -97, 73
28305, -881, 333, -335, 0, 140, -70, -237, -84, 84
28306, -882, 333, -335, 0, 210, -70, -249, -99, 73
28307, -881, 333, -334, 0, 140, -70, -246, -88, 82
28308, -882, 333, -336, 0, 140, -70, -243, -91, 75
28309, -882, 333, -335, 0, 140, -70, -244, -96, 81
28310, -881, 332, -335, 0, 140, -70, -243, -85, 85
28311, -882, 333, -334, 0, 140, -70, -246, -88, 79
28312, -882, 333, -335, 0, 140, -70, -250, -96, 78
28313, -882, 333, -335, 0, 210, -70, -247, -94, 78
28314, -882, 333, -334, -70, 140, -70, -247, -87, 79
28315, -882, 333, -335, 0, 140, -70, -241, -94, 76
28316, -882, 334, -335, -70, 210, -70, -246, -99, 85
28317, -883, 333, -335, 0, 140, -70, -244, -94, 73
28318, -881, 333, -335, 0, 210, -70, -261, -87, 72
28319, -882, 333, -335, 0, 210, -70, -240, -94, 76
28320, -882, 334, -335, 0, 140, -70, -247, -88, 79
28321, -883, 333, -335, 0, 140, -70, -253, -91, 79
28322, -882, 333, -335, 0, 210, -70, -252, -91, 82
28323, -882, 333, -334, 0, 210, 0, -243, -96, 73
28324, -882, 333, -335, 70, 140, -70, -244, -91, 91
28325, -882, 333, -335, 70, 140, -140, -246, -90, 87
28326, -882, 333, -334, 0, 70, -140, -249, -85, 78
28327, -882, 333, -334, 0, 140, -70, -247, -94, 82
28328, -882, 333, -335, 0, 140, -70, -243, -90, 75
28329, -882, 333, -335, 0, 280, -70, -249, -93, 85
28330, -882, 333, -335, 0, 210, -70, -244, -94, 79
28331, -882, 333, -334, -70, 280, -70, -243, -97, 84
28332, -882, 333, -335, 0, 210, -70, -249, -91, 84
28333, -882, 333, -335, 0, 140, -70, -241, -91, 78
28334, -882, 333, -335, 0, 140, -70, -247, -93, 84
28335, -882, 333, -335, 0, 210, -70, -243, -96, 70
28336, -882, 333, -334, 70, 210, -70, -240, -85, 79
28337, -882, 334, -334, -70, 140, -70, -240, -94, 75
28338, -883, 333, -334, 0, 140, -70, -252, -87, 78
28339, -882, 333, -335, 0, 210, -70, -255, -100, 75
28340, -882, 333, -335, -70, 140, -70, -256, -93, 82
28341, -882, 333, -335, 70, 210, -70, -256, -97, 82
28342, -882, 333, -335, 70, 210, 0, -252, -93, 84
28343, -881, 333, -335, 0, 210, -70, -238, -102, 72
28344, -882, 333, -334, 0, 210, -70, -250, -96, 75
28345, -882, 334, -335, -70, 210, -70, -249, -96, 76
28346, -882, 333, -335, 0, 140, -70, -243, -91, 82
28347, -881, 333, -335, 0, 140, -70, -243, -96, 73
28348, -881, 333, -335, 0, 140, -70, -253, -88, 85
28349, -882, 333, -335, -70, 210, 0, -232, -88, 76
28350, -883, 334, -335, 70, 210, -70, -249, -96, 87
28351, -881, 333, -335, 0, 140, -70, -249, -90, 76
28352, -882, 333, -335, 0, 140, -70, -240, -88, 84
28353, -882, 333, -335, 0, 140, -70, -246, -90, 78
28354, -881, 333, -334, 70, 70, -70, -241, -90, 79
28355, -881, 334, -334, 70, 140, 0, -244, -91, 79
28356, -879, 332, -333, 0, 70, -70, -243, -85, 87
28357, -888, 333, -338, -70, 350, -140, -247, -90, 78
28358, -885, 333, -336, 70, 210, -70, -246, -96, 82
28359, -880, 335, -335, 0, 140, -70, -243, -88, 73
28360, -882, 335, -335, -70, 70, -70, -252, -88, 87
28361, -882, 332, -335, 0, 210, -70, -243, -103, 79
28362, -882, 333, -334, 0, 210, -70, -246, -90, 76
28363, -881, 334, -335, 0, 140, -70, -244, -88, 84
28364, -883, 334, -336, 0, 140, -70, -243, -88, 85
28365, -882, 333, -335, -70, 70, -70, -246, -94, 79
28366, -883, 333, -335, 0, 210, -70, -247, -96, 82
28367, -882, 332, -334, 0, 210, -70, -244, -94, 78
28368, -882, 334, -335, 0, 210, -140, -244, -87, 88
28369, -882, 333, -335, -70, 210, -70, -240, -93, 69
28370, -883, 332, -336, 0, 210, -70, -247, -88, 82
28371, -880, 333, -334, 0, 140, -70, -247, -91, 85
28372, -882, 333, -334, 70, 140, -70, -249, -96, 81
28373, -882, 332, -334, 70, 140, -70, -250, -91, 75
28374, -881, 333, -335, 0, 140, 0, -238, -94, 82
28375, -882, 333, -335, -70, 140, -140, -247, -102, 82
28376, -882, 333, -334, 0, 140, -140, -247, -108, 90
28377, -882, 333, -334, 0, 210, -70, -240, -99, 84
28378, -882, 333, -334, 0, 140, -70, -246, -96, 87
28379, -882, 334, -335, 0, 140, -70, -244, -88, 72
28380, -882, 333, -335, 70, 140, -140, -243, -90, 87
28381, -882, 333, -335, 0, 210, 0, -244, -88, 87
28382, -882, 333, -335, 0, 140, -70, -241, -97, 82
28383, -881, 333, -333, 0, 210, -70, -250, -94, 75
28384, -882, 333, -335, 0, 210, -70, -240, -97, 82
28385, -882, 333, -335, -70, 210, -70, -244, -87, 79
28386, -882, 333, -334, 0, 210, -70, -250, -91, 82
28387, -882, 333, -334, -70, 70, -70, -258, -99, 76
28388, -882, 333, -335, 0, 140, -70, -240, -106, 78
28389, -882, 333, -335, 0, 210, -70, -247, -90, 75
28390, -882, 333, -335, 0, 210, -70, -255, -93, 81
28391, -882, 332, -335, 70, 210, -70, -237, -93, 76
28392, -882, 333, -336, 0, 140, -70, -244, -87, 85
28393, -882, 333, -335, 0, 210, -70, -246, -87, 82
28394, -882, 333, -335, 0, 140, -70, -252, -97, 84
28395, -882, 334, -336, 70, 140, -70, -247, -94, 79
28396, -881, 333, -334, 0, 140, -70, -249, -97, 82
28397, -882, 333, -335, 0, 210, -70, -253, -93, 73
28398, -882, 333, -335, 0, 210, -70, -240, -100, 78
28399, -883, 333, -335, 0, 140, -70, -246, -93, 82
28400, -882, 333, -335, 70, 140, -70, -241, -94, 85
28401, -882, 333, -334, 0, 140, -70, -252, -90, 82
28402, -882, 334, -335, 0, 210, -70, -243, -88, 87
28403, -883, 333, -334, -70, 140, -70, -252, -84, 76
28404, -882, 333, -335, 70, 210, 0, -249, -99, 81
28405, -881, 333, -335, 70, 140, -70, -249, -88, 78
28406, -882, 333, -335, -70, 210, -70, -238, -99, 82
28407, -882, 333, -335, -140, 210, -70, -244, -93, 75
28408, -882, 333, -336, 0, 140, -70, -238, -94, 85
28409, -882, 333, -335, -70, 210, -70, -243, -97, 85
28410, -882, 333, -335, 0, 210, -70, -244, -94, 81
28411, -882, 333, -335, 0, 140, -70, -250, -90, 91
28412, -882, 332, -334, 0, 210, -70, -247, -81, 76
28413, -882, 333, -335, 0, 140, -70, -243, -94, 81
28414, -881, 333, -335, 0, 210, -70, -253, -87, 79
28415, -882, 333, -335, 0, 140, -70, -241, -100, 81
28416, -882, 333, -335, -70, 210, -70, -243, -97, 75
28417, -882, 333, -335, 0, 210, -70, -241, -91, 85
28418, -883, 333, -335, 0, 140, -70, -244, -88, 81
28419, -882, 333, -335, 0, 210, -70, -234, -87, 82
28420, -882, 333, -335, 0, 210, -140, -250, -84, 82
28421, -881, 333, -336, 0, 140, -70, -241, -90, 82
28422, -883, 333, -335, 0, 210, -70, -243, -91, 88
28423, -882, 333, -335, 0, 140, -70, -247, -100, 82
28424, -883, 333, -335, 0, 140, -70, -246, -93, 82
28425, -882, 333, -335, 0, 210, -70, -238, -96, 76
28426, -883, 333, -335, 0, 210, -70, -247, -93, 84
28427, -882, 333, -335, 70, 210, -70, -246, -93, 81
28428, -882, 334, -335, 0, 210, -70, -244, -88, 82
28429, -882, 333, -335, 0, 210, -70, -249, -94, 76
28430, -882, 333, -336, 0, 140, -70, -243, -91, 87
28431, -881, 333, -334, 0, 140, -70, -238, -88, 81
28432, -882, 333, -335, 0, 140, -140, -240, -94, 87
28433, -882, 333, -334, 0, 140, -70, -237, -97, 76
28434, -882, 333, -334, 0, 140, -70, -241, -87, 82
28435, -882, 333, -334, 70, 210, -70, -253, -96, 82
28436, -882, 333, -335, 0, 140, -70, -244, -93, 78
28437, -883, 333, -334, 0, 140, -70, -253, -96, 73
28438, -883, 333, -334, -70, 140, -70, -247, -88, 78
28439, -882, 333, -335, 0, 210, -140, -252, -84, 81
28440, -882, 333, -335, 0, 210, -70, -249, -87, 75
28441, -882, 333, -335, -70, 210, -140, -243, -91, 87
28442, -882, 333, -335, 0, 210, -70, -246, -94, 76
28443, -882, 333, -335, 70, 210, -70, -253, -96, 85
28444, -882, 333, -335, 0, 210, -70, -246, -96, 82
28445, -883, 333, -335, 0, 210, -70, -247, -100, 73
28446, -882, 333, -335, 0, 210, -70, -247, -93, 76
28447, -883, 333, -335, 0, 140, -70, -249, -93, 78
28448, -881, 333, -335, 0, 140, -70, -246, -94, 79
28449, -882, 333, -335, -70, 140, -70, -240, -100, 78
28450, -882, 333, -336, 70, 140, -70, -241, -97, 78
28451, -882, 332, -335, 0, 210, -70, -249, -94, 76
28452, -882, 333, -335, -70, 210, -70, -244, -91, 88
28453, -882, 334, -334, 0, 210, -140, -241, -96, 73
28454, -882, 333, -335, 0, 140, -70, -249, -88, 78
28455, -882, 334, -334, 0, 140, -70, -249, -93, 88
28456, -881, 333, -335, 0, 140, -70, -244, -100, 84
28457, -882, 332, -333, 0, 210, -140, -244, -93, 75
28458, -883, 333, -334, 70, 210, -70, -249, -94, 84
28459, -882, 332, -335, 0, 210, -70, -243, -94, 81
28460, -882, 333, -334, 0, 140, -70, -250, -99, 79
28461, -882, 334, -335, 0, 140, -140, -244, -88, 78
28462, -882, 333, -335, 70, 210, -70, -246, -99, 90
28463, -881, 333, -334, 0, 210, -70, -241, -87, 81
28464, -882, 332, -336, -70, 140, -70, -243, -99, 81
28465, -881, 333, -335, 0, 140, -70, -252, -94, 82
28466, -881, 333, -336, 0, 140, -70, -240, -93, 69
28467, -882, 332, -336, -70, 210, -70, -244, -91, 82
28468, -882, 333, -335, 0, 210, -70, -252, -87, 85
28469, -882, 334, -335, 70, 210, -70, -244, -93, 82
28470, -882, 334, -334, 0, 210, -70, -243, -85, 79
28471, -882, 333, -334, 0, 140, -70, -240, -93, 81
28472, -883, 333, -334, 0, 140, -70, -253, -90, 87
28473, -882, 333, -335, 0, 210, -70, -252, -99, 82
28474, -882, 333, -335, -70, 140, -70, -243, -94, 91
28475, -882, 333, -335, -70, 140, -70, -250, -90, 78
28476, -882, 334, -335, -70, 140, -70, -243, -96, 64
28477, -881, 333, -335, -70, 210, -70, -256, -93, 78
28478, -882, 333, -335, 0, 140, -70, -243, -94, 85
28479, -881, 334, -335, 70, 140, -70, -244, -96, 79
28480, -882, 333, -336, -70, 210, -70, -247, -91, 79
28481, -882, 333, -335, -70, 140, 0, -249, -100, 72
28482, -882, 332, -334, 0, 210, -70, -253, -85, 76
28483, -882, 334, -334, 0, 140, -70, -244, -88, 85
28484, -882, 334, -335, 0, 140, -70, -241, -97, 87
28485, -882, 333, -336, 0, 210, 0, -232, -96, 84
28486, -882, 334, -335, 0, 140, -70, -237, -102, 75
28487, -881, 333, -335, 0, 210, -70, -241, -90, 82
28488, -882, 333, -336, 0, 210, -70, -246, -93, 79
28489, -882, 333, -335, 70, 140, -70, -247, -102, 81
28490, -882, 333, -336, 0, 210, -70, -244, -103, 84
28491, -881, 333, -335, 70, 140, -70, -249, -85, 85
28492, -882, 333, -335, 0, 140, -70, -246, -94, 81
28493, -881, 333, -335, 0, 280, -70, -247, -90, 82
28494, -882, 333, -335, 0, 210, -70, -238, -96, 87
28495, -882, 333, -335, 0, 210, -70, -247, -94, 85
28496, -882, 332, -334, 0, 210, -70, -255, -88, 84
28497, -882, 333, -336, 0, 210, -70, -246, -94, 78
28498, -882, 333, -335, 0, 140, -70, -246, -99, 76
28499, -882, 334, -335, 0, 140, -70, -244, -88, 79
28500, -882, 333, -336, 0, 210, -70, -250, -85, 79
28501, -882, 334, -334, 0, 140, -70, -247, -90, 81
28502, -882, 334, -334, 0, 210, -70, -247, -82, 72
28503, -882, 334, -336, 70, 210, -70, -246, -94, 93
28504, -882, 333, -335, 0, 210, -70, -240, -97, 76
28505, -882, 333, -335, -70, 70, -70, -247, -96, 87
28506, -881, 333, -335, -70, 140, -70, -241, -94, 87
28507, -882, 333, -334, -70, 140, -70, -247, -88, 78
28508, -882, 334, -334, 0, 140, -70, -247, -96, 85
28509, -883, 333, -335, -70, 140, -70, -249, -99, 78
28510, -882, 334, -335, 0, 140, -70, -246, -87, 84
28511, -882, 333, -335, 70, 210, -70, -250, -100, 88
28512, -882, 334, -335, 0, 140, -70, -243, -100, 85
28513, -882, 333, -334, 0, 140, -140, -240, -96, 82
28514, -882, 333, -335, 0, 210, -70, -246, -87, 88
28515, -882, 333, -334, 0, 210, -70, -249, -106, 82
28516, -882, 333, -335, 0, 210, -70, -247, -94, 84
28517, -882, 333, -335, 0, 210, -70, -241, -102, 81
28518, -882, 333, -335, -70, 210, -70, -249, -94, 81
28519, -882, 333, -335, 0, 280, -70, -244, -100, 88
28520, -882, 333, -335, 0, 140, -70, -238, -91, 85
28521, -882, 333, -335, 0, 70, -70, -247, -90, 73
28522, -881, 333, -334, 0, 140, -70, -243, -100, 81
28523, -882, 333, -335, 0, 140, -70, -244, -94, 78
28524, -882, 333, -335, 0, 210, -70, -241, -82, 84
28525, -883, 333, -335, 0, 210, -70, -250, -96, 73
28526, -881, 334, -335, 0, 70, -70, -247, -97, 76
28527, -882, 333, -335, 0, 210, -70, -246, -100, 84
28528, -882, 333, -335, -70, 210, -70, -250, -88, 73
28529, -881, 333, -334, 70, 210, -70, -244, -93, 82
28530, -882, 333, -335, 0, 210, -70, -250, -96, 75
28531, -882, 332, -335, 0, 210, -70, -240, -88, 75
28532, -882, 334, -335, -70, 140, -70, -246, -93, 78
28533, -881, 334, -335, 70, 210, -70, -244, -99, 79
28534, -882, 333, -335, 0, 210, -70, -246, -87, 81
28535, -882, 333, -335, 0, 280, 0, -252, -100, 73
28536, -883, 333, -335, -70, 210, -70, -246, -93, 76
28537, -882, 333, -335, 0, 140, -70, -256, -90, 81
28538, -883, 333, -334, 70, 140, -70, -246, -93, 78
28539, -882, 332, -335, 0, 210, -70, -250, -97, 79
28540, -882, 333, -335, 0, 140, -70, -241, -99, 87
28541, -882, 333, -335, 70, 140, -70, -246, -99, 76
28542, -882, 333, -335, -70, 210, -70, -249, -91, 78
28543, -881, 333, -336, -70, 140, -70, -250, -96, 76
28544, -882, 334, -335, 0, 210, -70, -250, -94, 79
28545, -882, 334, -335, 0, 140, -70, -243, -99, 76
28546, -882, 333, -336, 70, 140, -70, -250, -94, 85
28547, -881, 333, -335, 0, 210, -70, -250, -96, 78
28548, -882, 333, -335, -70, 210, -70, -246, -93, 78
28549, -882, 333, -335, 70, 280, -70, -238, -108, 75
28550, -882, 333, -335, 0, 210, -70, -246, -84, 78
28551, -882, 334, -334, 0, 210, -70, -246, -84, 90
28552, -882, 333, -335, 70, 210, -70, -249, -90, 84
28553, -882, 334, -335, 0, 210, -70, -247, -97, 84
28554, -882, 333, -335, 0, 140, -70, -241, -87, 75
28555, -882, 333, -335, 0, 140, -70, -244, -93, 81
28556, -881, 333, -335, 0, 210, -70, -250, -90, 85
28557, -882, 333, -335, 0, 210, -70, -237, -102, 76
28558, -881, 333, -334, 0, 210, -70, -252, -87, 76
28559, -882, 333, -334, 70, 210, -70, -244, -91, 85
28560, -882, 333, -335, -70, 210, -70, -247, -94, 82
28561, -882, 333, -335, 0, 210, -70, -256, -105, 79
28562, -881, 333, -335, 0, 210, -140, -247, -94, 90
28563, -882, 333, -334, 0, 210, -70, -246, -99, 79
28564, -882, 333, -335, 0, 210, -70, -250, -97, 70
28565, -882, 333, -334, 70, 140, -70, -243, -96, 82
28566, -882, 333, -335, 70, 140, -140, -249, -97, 84
28567, -882, 334, -335, -70, 210, -70, -252, -91, 78
28568, -882, 334, -334, -70, 210, -70, -253, -93, 84
28569, -882, 333, -334, 0, 140, -70, -243, -96, 82
28570, -882, 334, -334, 0, 140, -70, -244, -87, 79
28571, -882, 333, -335, -70, 210, -70, -250, -91, 73
28572, -883, 333, -335, 0, 140, -70, -240, -94, 82
28573, -882, 333, -335, 70, 140, -70, -243, -91, 79
28574, -882, 333, -335, 0, 140, -140, -249, -94, 91
28575, -882, 333, -335, 0, 210, -70, -250, -96, 81
28576, -882, 333, -335, -70, 140, -70, -244, -94, 82
28577, -881, 333, -335, 70, 210, -70, -247, -91, 84
28578, -882, 334, -335, 0, 210, -70, -241, -93, 93
28579, -883, 333, -335, 0, 210, -70, -240, -96, 79
28580, -882, 333, -334, 0, 210, -70, -247, -88, 85
28581, -882, 333, -336, 0, 140, -140, -255, -88, 85
28582, -882, 333, -335, 0, 210, -70, -249, -97, 84
28583, -882, 333, -334, 0, 210, -70, -240, -88, 72
28584, -882, 333, -336, 0, 210, -70, -249, -99, 82
28585, -882, 333, -335, 0, 140, -70, -246, -93, 85
28586, -882, 333, -335, -70, 140, -70, -240, -97, 76
28587, -882, 333, -335, 70, 140, -70, -250, -91, 75
28588, -882, 332, -335, 0, 210, -70, -241, -90, 90
28589, -882, 333, -335, 70, 210, -70, -249, -91, 78
28590, -882, 333, -335, 0, 210, -70, -249, -81, 81
28591, -882, 333, -335, 0, 140, -70, -250, -85, 88
28592, -882, 333, -334, 0, 70, -70, -241, -91, 81
28593, -882, 333, -334, 70, 210, -70, -246, -99, 79
28594, -883, 333, -335, 70, 210, -70, -241, -91, 75
28595, -881, 333, -334, 0, 210, -70, -241, -90, 75
28596, -882, 334, -335, 0, 210, -70, -252, -90, 75
28597, -881, 333, -334, 0, 210, -70, -246, -90, 76
28598, -882, 333, -334, -70, 140, -70, -244, -91, 78
28599, -882, 333, -336, 0, 140, -70, -246, -94, 85
28600, -882, 333, -335, 0, 140, -70, -240, -90, 78
28601, -881, 334, -336, 70, 140, -70, -250, -93, 76
28602, -882, 333, -335, -70, 140, -70, -247, -93, 79
28603, -882, 333, -334, 0, 140, -70, -246, -97, 88
28604, -883, 333, -334, 0, 210, -70, -252, -94, 78
28605, -882, 333, -335, 0, 140, -70, -247, -82, 82
28606, -882, 333, -335, -70, 210, -70, -238, -90, 79
28607, -882, 333, -336, 0, 140, -70, -243, -94, 81
28608, -882, 334, -335, 0, 210, -70, -235, -100, 79
28609, -882, 333, -334, 0, 140, -70, -246, -88, 82
28610, -882, 333, -334, 0, 210, -70, -244, -93, 84
28611, -882, 334, -336, 0, 210, -70, -241, -94, 76
28612, -882, 333, -335, 0, 140, -70, -237, -103, 76
28613, -876, 328, -327, 70, 420, 0, -238, -87, 75
28614, -885, 338, -335, 140, 420, -70, -249, -97, 90
28615, -885, 335, -344, 70, 350, -70, -246, -91, 84
28616, -886, 336, -343, -70, 210, -70, -250, -94, 81
28617, -873, 332, -327, 0, 70, -70, -243, -90, 85
28618, -878, 334, -333, 70, 490, -70, -237, -100, 79
28619, -887, 330, -335, 140, 490, -70, -247, -100, 78
28620, -887, 338, -341, 0, 210, -70, -244, -96, 85
28621, -882, 337, -342, -140, 0, 0, -246, -99, 79
28622, -879, 330, -331, 0, 280, 0, -246, -88, 79
28623, -882, 343, -342, -70, -140, -140, -246, -96, 75
28624, -885, 329, -338, -70, -140, -70, -237, -82, 91
28625, -892, 334, -337, -210, -280, -70, -243, -96, 76
28626, -878, 332, -333, -140, -350, -70, -244, -94, 81
28627, -889, 334, -336, -210, -420, -70, -253, -91, 76
28628, -887, 332, -336, -140, -490, -70, -235, -85, 78
28629, -887, 334, -337, -210, -630, 0, -252, -90, 85
28630, -886, 335, -336, -350, -840, 0, -252, -88, 81
28631, -887, 335, -337, -420, -1190, 70, -238, -94, 76
28632, -889, 332, -335, -420, -1260, 140, -235, -88, 76
28633, -893, 331, -333, -420, -1470, 210, -243, -94, 82
28634, -897, 330, -334, -560, -1750, 350, -252, -91, 79
28635, -904, 331, -336, -630, -2170, 490, -237, -99, 81
28636, -935, 330, -342, -980, -3640, 1190, -252, -88, 84
28637, -943, 327, -345, -1260, -5390, 1610, -246, -90, 84
28638, -940, 328, -346, -1610, -6720, 2100, -250, -88, 78
28639, -930, 329, -344, -1820, -7840, 2590, -250, -88, 75
28640, -923, 332, -343, -2380, -8470, 3430, -246, -97, 82
28641, -898, 341, -342, -2520, -7910, 3990, -238, -97, 79
28642, -899, 344, -342, -2730, -7280, 4410, -241, -93, 78
28643, -899, 343, -340, -2800, -6370, 4900, -244, -88, 79
28644, -891, 340, -336, -2940, -5460, 5320, -241, -88, 79
28645, -891, 339, -325, -2940, -3570, 6020, -243, -87, 76
28646, -898, 337, -324, -3010, -3290, 6230, -241, -88, 72
28647, -897, 338, -323, -3010, -3500, 6370, -247, -91, 78
28648, -901, 339, -324, -3010, -3780, 6510, -241, -85, 81
28649, -908, 341, -329, -3150, -4270, 6720, -241, -90, 73
28650, -914, 346, -333, -3500, -5040, 7210, -238, -87, 79
28651, -918, 347, -333, -3780, -5320, 7630, -243, -91, 81
28652, -920, 349, -333, -3990, -5600, 8120, -244, -84, 85
28653, -922, 348, -332, -4200, -5670, 8610, -238, -90, 79
28654, -930, 347, -331, -4690, -6230, 9800, -244, -78, 73
28655, -942, 348, -332, -4970, -6720, 10500, -241, -96, 82
28656, -944, 347, -330, -5250, -7280, 11200, -240, -82, 78
28657, -946, 350, -330, -5530, -7980, 11900, -243, -76, 76
28658, -950, 352, -331, -5950, -8820, 12670, -238, -82, 70
28659, -948, 353, -331, -6790, -11060, 14070, -247, -76, 85
28660, -950, 354, -330, -7210, -12110, 14770, -246, -85, 76
28661, -950, 358, -326, -7630, -13160, 15470, -243, -82, 70
28662, -957, 361, -323, -8050, -14420, 16240, -235, -67, 76
28663, -962, 361, -320, -8470, -15890, 17010, -240, -84, 75
28664, -961, 360, -315, -9380, -19040, 18690, -243, -73, 75
28665, -955, 362, -312, -9660, -19880, 19670, -243, -76, 73
28666, -944, 370, -310, -10010, -20300, 20580, -237, -76, 72
28667, -933, 376, -309, -10220, -20230, 21490, -238, -72, 76
28668, -931, 389, -304, -10780, -19670, 23380, -232, -58, 70
28669, -935, 393, -305, -11130, -19530, 24290, -240, -69, 73
28670, -940, 394, -302, -11340, -19320, 25340, -235, -67, 79
28671, -952, 398, -300, -11690, -19250, 26530, -243, -69, 63
28672, -954, 394, -293, -12040, -19740, 27650, -240, -58, 70
28673, -959, 397, -289, -12810, -20370, 30030, -235, -55, 67
28674, -957, 400, -281, -13160, -20930, 31150, -234, -61, 52
28675, -962, 404, -280, -13580, -22120, 32200, -226, -54, 67
28676, -980, 411, -282, -14070, -23590, 33250, -244, -49, 60
28677, -989, 415, -282, -14630, -26040, 34300, -232, -51, 58
28678, -982, 421, -276, -15960, -32200, 36540, -226, -51, 67
28679, -961, 424, -270, -16380, -33810, 37660, -229, -37, 60
28680, -950, 437, -264, -16660, -34300, 38780, -231, -48, 60
28681, -941, 444, -254, -16870, -34720, 39620, -226, -43, 61
28682, -931, 459, -239, -17360, -36890, 41020, -225, -27, 49
28683, -928, 473, -230, -17640, -38710, 41440, -226, -25, 49
28684, -924, 481, -219, -18060, -41370, 41720, -226, -34, 51
28685, -926, 499, -214, -18690, -44100, 42000, -220, -28, 46
28686, -941, 520, -208, -19250, -47600, 42140, -231, -16, 45
28687, -953, 565, -188, -21280, -59290, 41720, -229, -15, 46
28688, -955, 584, -174, -22400, -66570, 41230, -223, -19, 33
28689, -948, 600, -156, -23800, -74270, 40390, -210, -13, 37
28690, -962, 613, -150, -25270, -83370, 39550, -222, -6, 36
28691, -962, 598, -146, -26810, -93870, 38360, -216, -7, 21
28692, -886, 523, -137, -28140, -107870, 36470, -219, -3, 18
28693, -859, 494, -129, -27510, -108780, 36120, -208, -4, 4
28694, -833, 479, -112, -26180, -106330, 35910, -207, -3, 3
28695, -781, 471, -84, -24080, -98280, 36120, -205, 7, -12
28696, -772, 498, -44, -18620, -74340, 37100, -211, 13, -13
28697, -720, 495, -17, -16030, -62370, 37590, -208, 7, -13
28698, -680, 497, -2, -13370, -50400, 38290, -202, 10, -19
28699, -662, 515, 10, -10780, -39410, 39130, -210, 21, -24
28700, -688, 558, 20, -8540, -31430, 39830, -205, 10, -27
28701, -784, 601, 1, -5740, -24430, 40250, -204, 18, -27
28702, -803, 559, 1, -5320, -23590, 39900, -202, 30, -34
28703, -782, 532, 7, -5390, -22120, 39480, -204, 33, -27
28704, -741, 554, 18, -5460, -19320, 39130, -208, 39, -37
28705, -719, 595, 25, -5530, -16380, 38920, -210, 39, -27
28706, -717, 610, 48, -5040, -13860, 38640, -216, 30, -33
28707, -745, 601, 53, -4760, -13790, 38360, -214, 48, -33
28708, -779, 599, 46, -4550, -14350, 37800, -214, 42, -40
28709, -789, 594, 43, -4620, -15260, 37100, -208, 43, -34
28710, -760, 601, 49, -4970, -17150, 35980, -211, 45, -34
28711, -747, 619, 50, -5110, -17990, 35770, -220, 57, -31
28712, -740, 633, 54, -5110, -18830, 35560, -214, 60, -31
28713, -747, 635, 56, -5110, -19250, 35420, -208, 49, -39
28714, -758, 629, 58, -5040, -19390, 35280, -208, 63, -33
28715, -758, 629, 59, -4760, -18550, 35000, -210, 55, -33
28716, -746, 637, 61, -4550, -17500, 35140, -210, 63, -36
28717, -737, 646, 65, -4340, -16100, 35490, -208, 69, -40
28718, -740, 655, 65, -4060, -14630, 35840, -217, 64, -51
28719, -747, 659, 65, -3780, -13580, 36260, -216, 66, -39
28720, -753, 662, 61, -3710, -12460, 36470, -217, 76, -37
28721, -752, 665, 62, -3710, -12320, 36610, -213, 72, -45
28722, -754, 671, 62, -3780, -12460, 36960, -211, 81, -42
28723, -757, 678, 62, -3710, -12740, 37170, -220, 78, -40
28724, -756, 684, 63, -3920, -14280, 37730, -213, 81, -39
28725, -752, 685, 63, -3990, -14910, 37940, -216, 91, -42
28726, -746, 686, 63, -3990, -15540, 38150, -217, 93, -40
28727, -743, 692, 64, -4130, -16100, 38360, -220, 87, -46
28728, -733, 698, 66, -4130, -16450, 38640, -217, 100, -40
28729, -730, 708, 71, -4200, -17010, 39480, -211, 102, -49
28730, -737, 713, 72, -4340, -17360, 39970, -214, 96, -45
28731, -739, 715, 74, -4270, -17850, 40390, -216, 93, -42
28732, -730, 713, 77, -4340, -18130, 40880, -222, 109, -39
28733, -716, 712, 81, -4130, -16520, 42070, -225, 106, -43
28734, -697, 721, 85, -3570, -15120, 42770, -216, 108, -54
28735, -698, 728, 87, -3360, -13720, 43540, -217, 103, -49
28736, -702, 736, 89, -3290, -12670, 44240, -231, 115, -49
28737, -710, 743, 89, -3150, -11970, 45080, -229, 111, -46
28738, -732, 752, 90, -3500, -12950, 46620, -226, 120, -43
28739, -734, 751, 91, -3780, -14210, 47320, -226, 121, -49
28740, -726, 749, 94, -3850, -15400, 48090, -232, 132, -46
28741, -712, 747, 98, -3850, -15890, 48930, -226, 135, -46
28742, -699, 749, 102, -3710, -15680, 49910, -232, 130, -51
28743, -668, 762, 108, -3150, -13090, 52010, -232, 138, -45
28744, -650, 766, 111, -2800, -10850, 53130, -237, 136, -52
28745, -628, 769, 115, -2520, -8400, 54180, -237, 138, -42
28746, -606, 770, 117, -2170, -5670, 55090, -240, 150, -42
28747, -595, 769, 121, -1610, -1050, 56560, -243, 144, -43
28748, -601, 778, 122, -1540, 140, 57120, -249, 159, -43
28749, -615, 786, 120, -1680, -70, 57680, -246, 154, -40
28750, -632, 796, 118, -2030, -1400, 58100, -244, 169, -37
28751, -646, 806, 116, -2590, -4060, 58450, -253, 160, -36
28752, -645, 817, 114, -3920, -11480, 58940, -250, 169, -39
28753, -622, 815, 115, -4480, -14980, 59150, -252, 172, -48
28754, -591, 812, 117, -4900, -17570, 59430, -253, 171, -42
28755, -560, 809, 120, -4970, -18760, 59780, -253, 186, -37
28756, -534, 812, 122, -4900, -18830, 60130, -258, 187, -33
28757, -484, 821, 125, -4550, -17150, 60690, -265, 187, -40
28758, -466, 825, 128, -4340, -16100, 60830, -261, 193, -33
28759, -457, 826, 128, -4200, -15260, 60970, -273, 199, -37
28760, -454, 831, 128, -4200, -14980, 60900, -264, 199, -36
28761, -457, 837, 126, -4410, -16240, 60690, -265, 196, -36
28762, -463, 842, 127, -4620, -17850, 60550, -268, 202, -34
28763, -466, 846, 126, -4830, -19880, 60340, -268, 201, -37
28764, -467, 856, 124, -5250, -22470, 59990, -273, 216, -43
28765, -468, 863, 124, -5670, -25830, 59640, -270, 213, -43
28766, -450, 867, 125, -6720, -33670, 58730, -277, 222, -39
28767, -443, 869, 126, -7210, -37730, 58380, -285, 228, -48
28768, -431, 869, 127, -7560, -41720, 57750, -283, 222, -52
28769, -419, 872, 129, -7910, -45640, 57120, -282, 229, -48
28770, -409, 877, 130, -8260, -49700, 56420, -292, 237, -54
28771, -407, 885, 130, -9310, -59640, 55020, -288, 235, -49
28772, -420, 884, 128, -10010, -66290, 54040, -289, 241, -52
28773, -402, 879, 133, -10640, -73010, 53060, -291, 244, -60
28774, -399, 874, 135, -10990, -79520, 52150, -286, 244, -57
28775, -344, 868, 149, -10430, -85610, 50750, -298, 249, -70
28776, -231, 870, 164, -9450, -83370, 50610, -291, 258, -88
28777, -211, 884, 166, -8400, -80220, 50610, -306, 262, -84
28778, -175, 891, 174, -7280, -76160, 50680, -303, 258, -75
28779, -171, 896, 182, -6230, -70840, 50960, -303, 264, -88
28780, -177, 899, 178, -4620, -63560, 51100, -307, 262, -84
28781, -163, 897, 179, -3920, -61040, 50890, -307, 264, -96
28782, -178, 896, 182, -3290, -58590, 50680, -316, 268, -91
28783, -181, 893, 185, -2800, -57960, 50330, -325, 277, -97
28784, -209, 899, 182, -2520, -58730, 49910, -321, 277, -96
28785, -214, 903, 187, -2450, -65310, 48440, -324, 279, -100
28786, -170, 897, 196, -2170, -66640, 47950, -324, 276, -111
28787, -145, 896, 200, -1540, -65800, 47600, -330, 288, -102
28788, -110, 898, 208, -910, -63630, 47600, -330, 273, -103
28789, -96, 912, 216, 630, -58030, 47810, -334, 291, -117
28790, -102, 919, 219, 1050, -57050, 47740, -336, 291, -112
28791, -87, 923, 222, 1330, -56560, 47320, -336, 289, -126
28792, -60, 918, 224, 1680, -55090, 46900, -333, 292, -109
28793, -68, 914, 220, 2030, -53830, 46270, -342, 301, -124
28794, -47, 919, 216, 1750, -57610, 44520, -334, 291, -118
28795, -18, 911, 220, 1960, -58450, 43750, -339, 298, -117
28796, 22, 905, 228, 2520, -56980, 43260, -351, 298, -120
28797, 41, 912, 230, 3290, -53200, 43050, -346, 315, -132
28798, 55, 923, 228, 3990, -49350, 42700, -355, 313, -129
28799, 69, 933, 222, 4970, -42770, 41720, -360, 315, -136
28800, 75, 929, 222, 5320, -40460, 41160, -358, 313, -129
28801, 79, 920, 226, 5600, -38570, 40530, -364, 319, -127
28802, 85, 914, 231, 6090, -36260, 39900, -363, 309, -132
28803, 69, 921, 228, 6930, -32270, 38850, -366, 315, -135
28804, 68, 932, 229, 7070, -31010, 38290, -361, 316, -133
28805, 68, 942, 231, 7210, -29890, 37730, -363, 313, -129
28806, 58, 946, 227, 7140, -29610, 37030, -364, 322, -141
28807, 57, 944, 228, 7000, -29820, 36400, -373, 315, -135
28808, 54, 948, 226, 6860, -29680, 35490, -373, 319, -138
28809, 46, 953, 223, 6650, -30170, 35000, -376, 328, -138
28810, 41, 952, 218, 6300, -31570, 34370, -382, 322, -133
28811, 42, 952, 217, 6020, -33180, 33810, -378, 325, -136
28812, 42, 952, 215, 5740, -35000, 33390, -391, 333, -124
28813, 32, 956, 209, 4970, -40110, 32270, -388, 330, -138
28814, 36, 958, 209, 4550, -43330, 31570, -385, 331, -135
28815, 46, 953, 208, 3990, -46620, 30800, -391, 333, -133
28816, 70, 948, 206, 3640, -49420, 30170, -390, 337, -144
28817, 101, 955, 198, 3150, -52500, 28980, -396, 340, -145
28818, 105, 957, 195, 2870, -54670, 28280, -403, 342, -132
28819, 117, 953, 192, 2450, -56980, 27580, -402, 346, -144
28820, 121, 947, 192, 2170, -59220, 26810, -403, 340, -139
28821, 146, 939, 190, 1960, -60830, 26110, -411, 339, -138
28822, 216, 927, 191, 2380, -59850, 24850, -406, 340, -148
28823, 200, 939, 189, 2870, -56420, 24640, -405, 339, -154
28824, 198, 949, 175, 2800, -57470, 24010, -408, 352, -154
28825, 246, 936, 197, 3500, -53270, 24150, -411, 352, -156
28826, 318, 922, 207, 5390, -44100, 24710, -411, 354, -163
28827, 290, 939, 194, 7910, -28070, 24920, -417, 346, -145
28828, 295, 943, 192, 8540, -23170, 24850, -417, 346, -147
28829, 314, 933, 195, 9380, -16590, 24990, -403, 348, -141
28830, 298, 922, 202, 10360, -10430, 25410, -418, 357, -154
28831, 223, 940, 209, 12040, -1050, 25970, -420, 352, -160
28832, 195, 947, 217, 12460, 1540, 26040, -423, 349, -145
28833, 187, 949, 218, 12880, 3080, 26110, -423, 352, -150
28834, 176, 950, 216, 13230, 4550, 26110, -430, 363, -144
28835, 178, 955, 213, 13230, 4690, 26110, -426, 351, -138
28836, 175, 960, 205, 12670, 3430, 26110, -423, 357, -133
28837, 167, 959, 203, 12320, 2240, 26110, -430, 360, -139
28838, 179, 956, 203, 11900, 700, 25900, -436, 354, -133
28839, 184, 951, 203, 11410, -980, 25620, -426, 355, -141
28840, 210, 943, 204, 11060, -2030, 24990, -432, 360, -145
28841, 248, 935, 201, 10920, -2660, 24780, -438, 364, -138
28842, 268, 934, 202, 10920, -2030, 24500, -438, 358, -141
28843, 283, 935, 202, 11060, -420, 24290, -430, 366, -136
28844, 290, 937, 199, 11200, 1470, 24010, -435, 364, -132
28845, 305, 940, 194, 11200, 5040, 23100, -436, 364, -129
28846, 308, 937, 192, 11130, 6720, 22750, -442, 363, -120
28847, 306, 935, 189, 11060, 8120, 22260, -442, 364, -133
28848, 305, 934, 188, 10990, 9310, 21840, -444, 364, -117
28849, 302, 938, 187, 10850, 10220, 21350, -441, 364, -130
28850, 293, 942, 180, 10220, 10640, 20160, -436, 369, -121
28851, 290, 943, 176, 9800, 10010, 19460, -447, 363, -121
28852, 298, 943, 172, 9310, 9240, 18760, -447, 372, -117
28853, 299, 942, 169, 8750, 8540, 17990, -448, 366, -130
28854, 317, 937, 167, 7980, 7140, 16170, -453, 370, -121
28855, 357, 931, 162, 7700, 7420, 15190, -447, 373, -129
28856, 374, 932, 158, 7420, 8260, 14210, -451, 366, -114
28857, 386, 933, 156, 7070, 9380, 13160, -453, 370, -118
28858, 387, 936, 154, 6790, 10290, 12180, -457, 369, -109
28859, 367, 941, 152, 5810, 11760, 10150, -450, 361, -105
28860, 350, 943, 152, 5250, 11690, 9100, -451, 370, -111
28861, 337, 940, 151, 4550, 10920, 7910, -454, 369, -114
28862, 332, 938, 151, 3920, 9520, 6650, -448, 375, -123
28863, 334, 938, 149, 3430, 7840, 5530, -456, 369, -108
28864, 346, 939, 146, 2310, 5250, 3220, -454, 370, -111
28865, 350, 940, 144, 1680, 4270, 2170, -459, 369, -111
28866, 365, 939, 143, 1190, 3920, 1190, -460, 373, -100
28867, 361, 941, 141, 840, 4270, 210, -454, 366, -114
28868, 358, 941, 139, 0, 4480, -1610, -450, 369, -112
28869, 339, 944, 135, -490, 3920, -2660, -454, 378, -103
28870, 336, 943, 136, -910, 3080, -3570, -457, 375, -97
28871, 337, 939, 136, -1400, 2590, -4550, -453, 376, -118
28872, 341, 938, 135, -1680, 1960, -5530, -445, 372, -108
28873, 347, 942, 135, -2310, 2100, -7210, -450, 370, -108
28874, 342, 944, 135, -2520, 2590, -7910, -469, 372, -106
28875, 333, 945, 137, -2940, 3010, -8610, -445, 369, -123
28876, 323, 945, 138, -3290, 3080, -9310, -444, 364, -108
28877, 311, 945, 139, -3640, 3080, -10010, -453, 375, -111
28878, 306, 943, 143, -4200, 2100, -11410, -451, 373, -108
28879, 308, 942, 145, -4410, 1960, -11970, -448, 369, -111
28880, 308, 942, 148, -4550, 2030, -12530, -442, 375, -121
28881, 306, 945, 149, -4690, 2520, -13020, -447, 381, -112
28882, 300, 947, 152, -4900, 4060, -13720, -447, 369, -112
28883, 287, 947, 157, -4900, 4480, -14140, -445, 373, -112
28884, 280, 945, 159, -5110, 5040, -14420, -448, 360, -105
28885, 271, 945, 161, -5110, 5320, -14700, -447, 366, -103
28886, 260, 946, 163, -5110, 5460, -14980, -445, 373, -118
28887, 245, 949, 169, -5390, 4620, -15470, -436, 367, -120
28888, 249, 948, 172, -5460, 4620, -15680, -442, 357, -120
28889, 248, 948, 174, -5390, 5110, -15750, -435, 369, -124
28890, 248, 948, 176, -5320, 5600, -15820, -436, 364, -115
28891, 243, 950, 179, -5320, 6300, -15890, -450, 363, -121
28892, 228, 951, 183, -5250, 7280, -15750, -436, 364, -118
28893, 237, 943, 189, -4970, 8330, -15610, -439, 369, -118
28894, 241, 938, 195, -4410, 10570, -15260, -441, 366, -118
28895, 234, 943, 197, -3780, 13370, -14980, -433, 373, -123
28896, 220, 951, 197, -3080, 16590, -14210, -436, 360, -118
28897, 181, 962, 196, -3010, 16660, -13930, -439, 360, -123
28898, 55, 952, 188, -3430, 15890, -13860, -429, 363, -121
28899, -73, 941, 215, -4760, 5250, -14840, -429, 354, -118
28900, 49, 959, 206, -6020, -4340, -15470, -429, 366, -129
28901, 205, 969, 238, -6370, -10920, -14630, -427, 360, -117
28902, 207, 971, 237, -6020, -9170, -13580, -439, 355, -124
28903, 211, 972, 231, -5390, -4970, -12390, -426, 358, -130
28904, 161, 976, 227, -4620, -350, -11270, -432, 354, -133
28905, 111, 965, 223, -4270, 1470, -10500, -424, 357, -126
28906, 91, 958, 220, -4550, -2940, -9870, -429, 352, -129
28907, 105, 966, 216, -4690, -6090, -9450, -429, 355, -124
28908, 109, 969, 214, -4690, -8470, -8960, -424, 354, -132
28909, 122, 968, 211, -4620, -10430, -8540, -426, 355, -123
28910, 153, 970, 202, -4550, -11410, -7770, -436, 355, -127
28911, 170, 972, 187, -4480, -10500, -7350, -418, 357, -130
28912, 198, 961, 193, -4410, -9100, -7000, -424, 363, -130
28913, 193, 960, 184, -4200, -7560, -6580, -423, 352, -132
28914, 188, 966, 178, -3990, -6510, -6370, -427, 358, -129
28915, 189, 957, 184, -3640, -6370, -6440, -427, 345, -136
28916, 201, 948, 177, -3500, -5740, -6510, -420, 354, -136
28917, 221, 942, 182, -3220, -4760, -6580, -418, 355, -141
28918, 226, 956, 177, -3080, -3290, -6790, -426, 357, -120
28919, 242, 971, 175, -3010, -1610, -7070, -412, 346, -132
28920, 249, 956, 191, -2940, 3010, -7490, -427, 360, -127
28921, 223, 966, 177, -2870, 4550, -7770, -421, 357, -138
28922, 187, 963, 183, -3080, 4200, -8330, -426, 357, -130
28923, 206, 941, 192, -3430, 2170, -9100, -421, 351, -129
28924, -16, 882, 335, -490, 3920, -7280, -421, 357, -138
28925, 87, 937, 278, 140, -840, -6650, -409, 343, -135
28926, 152, 1077, 224, -1470, 840, -6930, -423, 354, -135
28927, 162, 1166, 174, -3850, 2240, -7280, -421, 348, -141
28928, 210, 1029, 169, -6020, -1400, -7840, -424, 349, -138
28929, 254, 787, 205, -5110, 1050, -8190, -415, 355, -136
28930, 228, 899, 199, -3570, 2030, -8890, -414, 354, -141
28931, 180, 1012, 191, -2730, 840, -9940, -414, 354, -145
28932, 157, 1026, 182, -3010, -3080, -10710, -412, 351, -142
28933, 125, 1011, 183, -4130, -5530, -10640, -418, 348, -142
28934, -86, 1061, 191, -6440, -5740, -7350, -418, 355, -145
28935, -202, 1025, 202, -7000, -9590, -5110, -421, 346, -144
28936, -212, 969, 219, -7000, -14910, -3150, -418, 352, -145
28937, -110, 931, 224, -5670, -17710, -1400, -418, 351, -135
28938, 137, 933, 199, 210, -8820, 2800, -423, 342, -138
28939, 251, 913, 197, 3710, 350, 5390, -417, 352, -150
28940, 266, 923, 189, 7000, 12320, 8190, -415, 349, -151
28941, 219, 950, 192, 9030, 21770, 10430, -420, 339, -148
28942, 155, 987, 204, 10080, 28210, 11900, -423, 348, -139
28943, 0, 1025, 200, 8330, 25410, 12460, -423, 349, -138
28944, -20, 1012, 196, 6440, 17290, 11900, -421, 352, -135
28945, -10, 991, 201, 4410, 6090, 11130, -414, 352, -139
28946, 28, 964, 198, 3010, -4340, 10150, -426, 361, -129
28947, 81, 943, 209, 1960, -11970, 9310, -423, 345, -130
28948, 191, 958, 218, 1680, -16660, 8470, -412, 351, -136
28949, 221, 966, 232, 2170, -14560, 8750, -418, 346, -145
28950, 244, 940, 225, 2590, -11130, 9240, -427, 352, -139
28951, 236, 944, 217, 2800, -6790, 9660, -421, 358, -139
28952, 203, 970, 215, 2940, -1470, 9870, -418, 352, -132
28953, 201, 945, 223, 2940, -980, 9730, -420, 352, -144
28954, 185, 935, 225, 3010, -1190, 9310, -427, 358, -135
28955, 197, 948, 224, 3150, -2100, 8890, -429, 355, -130
28956, 194, 961, 222, 3290, -2940, 8680, -427, 357, -136
28957, 199, 941, 222, 3290, -3080, 8400, -424, 363, -132
28958, 202, 948, 220, 3150, -2590, 8190, -420, 355, -132
28959, 198, 967, 217, 2870, -2030, 8120, -423, 358, -135
28960, 201, 970, 213, 2660, -1890, 7980, -426, 352, -130
28961, 202, 956, 215, 2520, -1890, 7770, -430, 360, -127
28962, 202, 945, 216, 2590, -2030, 7560, -420, 355, -126
28963, 202, 952, 214, 2730, -2030, 7420, -424, 354, -136
28964, 230, 931, 212, 2870, -2660, 7070, -433, 352, -121
28965, 208, 933, 200, 2730, -3010, 6510, -421, 351, -132
28966, 286, 932, 169, 1540, -4900, 3220, -429, 360, -147
28967, 387, 1005, 192, 630, -2940, 1540, -435, 348, -126
28968, 291, 1022, 193, 0, -3220, 1120, -438, 358, -127
28969, 319, 952, 201, -560, 1820, 420, -438, 358, -124
28970, 310, 918, 196, -700, 560, -420, -424, 369, -129
28971, 336, 895, 181, -910, 0, -3500, -432, 354, -135
28972, 322, 914, 189, -1190, 490, -5390, -427, 354, -132
28973, 392, 949, 192, -1400, -840, -6930, -435, 358, -126
28974, 345, 987, 198, -2030, 1750, -8260, -432, 360, -129
28975, 373, 979, 198, -3150, 6790, -9800, -427, 363, -136
28976, 275, 918, 212, -3010, 8750, -10010, -438, 355, -130
