Time [mS], AccX [mg],AccY [mg],AccZ [mg],GyroX [mdps],GyroY [mdps],GyroZ [mdps],MagX [mgauss],MagY [mgauss],MagZ [mgauss]
22109, 35, 985, 171, 560, -420, -1330, -379, 336, -139
22110, 41, 976, 178, 700, -420, -840, -379, 336, -135
22111, 36, 981, 178, 700, 2100, -350, -385, 331, -129
22112, 36, 981, 174, 770, 2870, -350, -387, 331, -135
22113, 38, 979, 179, 1120, 3010, -350, -382, 331, -138
22114, 31, 986, 175, 1260, 3430, -280, -378, 331, -136
22115, 37, 985, 176, 1610, 3640, -210, -375, 334, -136
22116, 38, 976, 172, 2240, 2800, 1540, -376, 328, -132
22117, 34, 977, 170, 2170, 1470, 3150, -385, 321, -141
22118, 34, 979, 168, 2590, 420, 3920, -379, 328, -135
22119, 28, 977, 164, 3570, -1050, 4130, -379, 327, -133
22120, 31, 975, 165, 4690, -3640, 4060, -375, 336, -115
22121, 36, 986, 182, 6020, -6370, 1120, -384, 339, -127
22122, 40, 989, 189, 4970, -5390, -420, -379, 328, -129
22123, 49, 988, 193, 3570, -2730, -1400, -388, 339, -127
22124, 39, 986, 186, 2240, -490, -1820, -385, 339, -126
22125, 34, 988, 184, 1050, -350, -2100, -382, 336, -132
22126, 22, 985, 177, 1120, -70, -1890, -390, 327, -124
22127, 55, 975, 186, 700, -350, -1890, -388, 330, -135
22128, 72, 978, 221, 280, 6790, -1540, -382, 327, -123
22129, 12, 977, 157, 560, 5810, -1680, -388, 330, -127
22130, 29, 980, 175, 1400, 1190, -1820, -387, 337, -127
22131, 34, 981, 180, 1610, 1050, -1890, -385, 330, -136
22132, 35, 981, 177, 1610, 1190, -1960, -381, 325, -124
22133, 34, 982, 174, 1610, 1330, -2030, -387, 336, -127
22134, 44, 978, 174, 1960, 2170, -1820, -378, 328, -132
22135, 36, 980, 168, 1680, 2450, -1890, -382, 337, -120
22136, 30, 981, 165, 2030, 2870, -1820, -384, 327, -138
22137, 29, 983, 169, 2030, 2520, -1820, -379, 328, -127
22138, 32, 986, 162, 1960, 2870, -1890, -382, 333, -130
22139, 16, 988, 154, 2100, 980, -2100, -379, 336, -124
22140, 12, 986, 151, 1820, 1190, -2100, -388, 327, -123
22141, 17, 987, 155, 1890, 0, -2100, -385, 327, -118
22142, 17, 984, 152, 1750, -700, -2030, -375, 334, -124
22143, 17, 985, 153, 1890, -1050, -2030, -381, 328, -118
22144, 22, 991, 156, 1820, -910, -1820, -387, 327, -123
22145, 26, 990, 154, 1680, -350, -1610, -378, 328, -121
22146, 22, 990, 154, 1680, -210, -1400, -382, 327, -126
22147, 21, 987, 158, 1400, 280, -1260, -378, 330, -126
22148, 15, 987, 153, 1400, 350, -1120, -382, 324, -130
22149, 9, 986, 152, 1400, -910, -630, -376, 331, -133
22150, 11, 981, 158, 1400, -2100, -560, -379, 333, -121
22151, 6, 984, 158, 1540, -3150, -700, -387, 330, -123
22152, 13, 985, 163, 1260, -2800, -1120, -376, 343, -124
22153, 16, 991, 164, 910, -2520, -1260, -376, 327, -123
22154, 9, 997, 160, 630, -2170, -1260, -376, 319, -127
22155, 16, 993, 158, 350, -2450, -1190, -387, 333, -123
22156, 6, 1000, 167, 70, -2030, -1120, -378, 325, -124
22157, 9, 991, 158, -350, -1960, -980, -381, 327, -132
22158, 18, 984, 162, -490, -1610, -630, -379, 328, -127
22159, 20, 986, 161, -560, -1050, -490, -378, 331, -142
22160, 29, 985, 163, -490, -350, -280, -382, 334, -136
22161, 29, 986, 162, -350, 490, -140, -376, 331, -118
22162, 32, 986, 166, -350, 1400, 0, -379, 334, -123
22163, 30, 989, 160, -350, 1400, -70, -385, 334, -115
22164, 29, 991, 157, -280, 1540, -70, -375, 331, -130
22165, 33, 990, 158, -210, 2100, 70, -390, 331, -121
22166, 34, 988, 155, -210, 3220, 210, -381, 330, -130
22167, 38, 985, 152, 70, 5390, 560, -376, 330, -129
22168, 41, 984, 150, 210, 6650, 700, -381, 319, -129
22169, 39, 983, 147, 490, 8050, 910, -375, 321, -126
22170, 40, 983, 146, 700, 9590, 1050, -378, 325, -129
22171, 41, 982, 144, 840, 10990, 1190, -373, 336, -123
22172, 46, 981, 144, 1470, 14350, 1400, -384, 330, -127
22173, 49, 981, 144, 1750, 15890, 1540, -388, 331, -124
22174, 49, 982, 141, 2030, 17500, 1680, -381, 328, -123
22175, 61, 981, 144, 2380, 19320, 1680, -382, 325, -121
22176, 71, 979, 146, 2800, 22120, 1890, -391, 319, -117
22177, 92, 970, 161, 3850, 29260, 2030, -381, 324, -121
22178, 89, 982, 160, 4480, 32130, 2030, -381, 331, -109
22179, 84, 1012, 145, 5110, 34370, 2100, -376, 330, -114
22180, 54, 1016, 130, 5600, 35980, 2310, -376, 330, -124
22181, 1, 982, 135, 3710, 32340, 2030, -376, 328, -112
22182, 80, 941, 130, 4550, 38360, 2660, -391, 343, -117
22183, 65, 941, 121, 5810, 43960, 3360, -387, 334, -106
22184, 83, 950, 127, 7280, 49490, 3920, -382, 331, -108
22185, 85, 962, 144, 8610, 55860, 4480, -384, 328, -91
22186, 43, 1009, 140, 9590, 61600, 4690, -370, 334, -102
22187, 48, 1011, 143, 9310, 61530, 4480, -382, 325, -91
22188, 37, 1002, 145, 8750, 61320, 4270, -372, 330, -93
22189, 38, 993, 145, 8330, 60900, 4200, -382, 315, -102
22190, 27, 988, 138, 8260, 60690, 4060, -379, 327, -90
22191, 33, 968, 139, 8820, 62510, 4270, -381, 334, -78
22192, -11, 972, 133, 9450, 63910, 4410, -387, 331, -82
22193, -17, 978, 131, 9450, 62860, 4410, -378, 336, -75
22194, 15, 982, 123, 9660, 62930, 4340, -375, 328, -76
22195, -32, 997, 131, 10080, 65170, 4410, -382, 337, -61
22196, -82, 1010, 133, 9100, 60130, 3920, -384, 325, -67
22197, -95, 1024, 129, 7630, 51800, 3290, -382, 331, -61
22198, -66, 1023, 129, 6090, 43960, 2730, -390, 337, -72
22199, -29, 1010, 128, 5250, 39550, 2380, -388, 322, -60
22200, 17, 977, 131, 5320, 39410, 2520, -384, 325, -57
22201, 13, 973, 132, 5880, 41090, 2660, -378, 322, -57
22202, -16, 975, 136, 6300, 41370, 2730, -390, 331, -61
22203, -45, 985, 133, 6020, 38920, 2590, -390, 330, -52
22204, -49, 997, 133, 5530, 35000, 2170, -384, 336, -48
22205, -36, 1006, 141, 4410, 27090, 1470, -384, 330, -49
22206, -48, 1002, 140, 3710, 23730, 1260, -390, 337, -45
22207, -60, 1003, 141, 3360, 19880, 840, -382, 324, -51
22208, -52, 990, 157, 2590, 14490, 630, -381, 328, -37
22209, -59, 985, 153, 1120, 3990, -210, -385, 333, -37
22210, -77, 997, 125, 700, 0, -630, -393, 322, -48
22211, -27, 984, 153, 350, -3290, -910, -384, 330, -39
22212, -21, 998, 129, 350, -4620, -1120, -388, 327, -42
22213, 27, 981, 165, 560, -4690, -1050, -394, 331, -45
22214, 55, 971, 170, 980, -2030, -910, -382, 319, -48
22215, 35, 987, 145, 1260, -280, -840, -375, 325, -46
22216, 46, 983, 168, 1260, 980, -840, -391, 330, -46
22217, 17, 996, 141, 1260, 1680, -910, -384, 328, -48
22218, 29, 986, 158, 1260, 3430, -840, -400, 330, -37
22219, 27, 985, 152, 1540, 4620, -840, -381, 324, -45
22220, 19, 985, 137, 1680, 5880, -630, -388, 328, -40
22221, 31, 975, 146, 2030, 7700, -490, -379, 336, -48
22222, 32, 979, 133, 2310, 9730, -210, -388, 345, -40
22223, 50, 989, 126, 2940, 15400, 140, -390, 331, -46
22224, 60, 990, 125, 3430, 18830, 350, -382, 319, -36
22225, 70, 985, 125, 3780, 22470, 700, -384, 334, -37
22226, 76, 982, 121, 4340, 27090, 980, -394, 331, -42
22227, 89, 973, 126, 5110, 31710, 1400, -379, 322, -40
22228, 97, 957, 127, 7560, 44240, 2030, -385, 327, -36
22229, 61, 964, 120, 8890, 50120, 2240, -381, 324, -24
22230, 16, 974, 127, 9660, 52640, 2170, -384, 325, -22
22231, -20, 991, 121, 9870, 51520, 1820, -393, 330, -31
22232, 0, 992, 132, 9870, 47320, 980, -393, 328, -28
22233, -26, 990, 143, 9870, 45010, 630, -385, 316, -13
22234, -65, 999, 135, 9450, 39620, 70, -391, 324, -18
22235, -74, 1002, 136, 8680, 32620, -630, -390, 324, -18
22236, -81, 1008, 117, 7840, 25200, -1330, -394, 330, -21
22237, -47, 996, 106, 6510, 14490, -2380, -390, 333, -19
22238, -10, 988, 106, 6440, 12460, -2520, -382, 333, -16
22239, 11, 987, 100, 6790, 13090, -2450, -388, 328, -7
22240, 25, 980, 105, 7350, 15400, -2310, -381, 334, -13
22241, 27, 979, 101, 8120, 18200, -2030, -382, 327, -7
22242, 11, 1002, 99, 9310, 23310, -1750, -390, 330, -15
22243, 10, 980, 119, 9520, 23730, -1750, -379, 330, -3
22244, -13, 989, 98, 9800, 23100, -1890, -388, 325, -12
22245, -39, 979, 127, 9520, 21140, -2170, -391, 336, -15
22246, -67, 1002, 100, 8680, 13090, -3080, -382, 330, -6
22247, -72, 1019, 75, 7980, 9660, -3360, -394, 325, 0
22248, -41, 997, 122, 7350, 5390, -3640, -385, 334, -10
22249, -58, 1005, 74, 6650, 2590, -3710, -399, 321, 3
22250, -18, 986, 107, 6580, 1050, -3850, -388, 324, 4
22251, -40, 977, 96, 6650, -490, -3920, -387, 327, 3
22252, -42, 982, 85, 6720, -1400, -3780, -394, 331, 4
22253, -19, 991, 93, 7280, -1330, -4060, -393, 324, 0
22254, 1, 999, 97, 7350, -1050, -3920, -391, 331, 6
22255, -3, 1007, 89, 7560, -140, -3990, -391, 330, -1
22256, -20, 993, 87, 6930, 70, -3780, -382, 321, 7
22257, -12, 972, 108, 6580, -840, -3710, -385, 324, 0
22258, 17, 981, 86, 6860, -210, -3920, -381, 324, 1
22259, 8, 991, 103, 7000, 1610, -3850, -381, 318, 3
22260, -18, 1005, 84, 7420, 2520, -3920, -388, 324, 7
22261, -31, 996, 84, 7700, 2450, -3990, -382, 327, 1
22262, -15, 980, 111, 7910, 2170, -3990, -393, 328, 10
22263, -28, 986, 88, 8190, 1680, -4060, -381, 322, 6
22264, -21, 983, 101, 8330, 1260, -4200, -385, 327, 10
22265, -20, 999, 101, 8400, -350, -4550, -385, 316, 6
22266, -13, 1007, 91, 8400, -840, -4690, -384, 319, 3
22267, -1, 1008, 102, 8470, -980, -4760, -382, 324, 3
22268, -17, 1006, 84, 8330, -910, -4760, -384, 324, 6
22269, -42, 985, 97, 8050, -980, -4690, -396, 319, 15
22270, -44, 967, 89, 7770, -3010, -4760, -376, 321, 10
22271, -58, 980, 74, 7630, -3570, -4760, -373, 318, 7
22272, -42, 995, 80, 7700, -4200, -4900, -382, 324, 10
22273, -46, 1009, 77, 7630, -5530, -5040, -381, 310, 10
22274, -57, 1004, 82, 7140, -9520, -5320, -384, 316, 9
22275, -61, 996, 77, 6930, -12110, -5460, -393, 319, 13
22276, -74, 986, 77, 6510, -15540, -5670, -375, 312, 15
22277, -79, 984, 70, 6020, -19950, -6160, -381, 319, 9
22278, -63, 982, 70, 5530, -23590, -6650, -376, 321, 3
22279, -20, 1018, 51, 4970, -26530, -6860, -379, 322, 12
22280, -14, 1034, 38, 4830, -25690, -6650, -373, 313, 15
22281, -23, 1042, 24, 4270, -23450, -6160, -375, 319, 1
22282, -58, 1037, 2, 3500, -21210, -5530, -376, 318, 6
22283, -94, 1012, -7, 2520, -19810, -4830, -372, 322, 16
22284, -139, 975, -16, 210, -20300, -3640, -379, 318, 3
22285, -136, 987, -19, -630, -20790, -3080, -379, 316, 0
22286, -126, 1005, -10, -1330, -20930, -2380, -373, 324, 3
22287, -129, 1023, -5, -2030, -21490, -1610, -378, 318, 4
22288, -108, 1045, -1, -3850, -23380, -70, -372, 316, 4
22289, -118, 1049, -5, -5250, -24850, 490, -373, 316, 1
22290, -138, 1052, -8, -7140, -27720, 910, -378, 324, -21
22291, -177, 1068, -24, -9660, -32550, 1330, -376, 324, -6
22292, -190, 1063, -29, -12880, -38780, 1820, -376, 318, -7
22293, -177, 1042, -31, -18410, -48230, 3500, -370, 306, -4
22294, -207, 1038, -30, -20230, -50820, 4550, -373, 312, -16
22295, -261, 1035, -27, -22120, -55440, 5600, -376, 316, -13
22296, -310, 1036, -30, -24290, -63280, 6370, -370, 319, -24
22297, -310, 1040, -35, -26810, -73360, 6930, -366, 315, -25
22298, -218, 1029, -27, -30940, -86800, 8470, -379, 309, -42
22299, -177, 1020, -19, -32480, -90790, 9380, -369, 327, -28
22300, -174, 1012, 5, -33740, -92680, 10360, -366, 321, -42
22301, -218, 1026, 11, -35350, -98000, 10990, -384, 318, -43
22302, -99, 1018, 43, -38220, -109690, 11900, -376, 321, -63
22303, -131, 1003, 72, -38780, -112420, 12250, -384, 324, -66
22304, -132, 987, 72, -39550, -119280, 12180, -375, 327, -76
22305, -94, 973, 93, -39900, -124670, 12110, -366, 330, -84
22306, -100, 981, 93, -39900, -129570, 11970, -375, 333, -99
22307, -69, 965, 114, -40040, -140490, 11200, -366, 322, -96
22308, -75, 975, 122, -40320, -146440, 10780, -378, 327, -100
22309, 12, 977, 118, -40320, -152670, 10080, -385, 336, -106
22310, 80, 961, 135, -39480, -151200, 9870, -381, 328, -130
22311, 35, 959, 133, -38220, -148820, 9590, -382, 337, -127
22312, 135, 949, 162, -36260, -146230, 8610, -381, 330, -148
22313, 160, 940, 167, -34790, -141610, 8400, -384, 343, -154
22314, 150, 926, 183, -33250, -136920, 8260, -391, 343, -156
22315, 146, 927, 186, -32340, -135310, 8330, -394, 331, -171
22316, 153, 952, 181, -30520, -129850, 8260, -391, 336, -172
22317, 243, 941, 198, -28840, -124950, 7980, -393, 328, -175
22318, 284, 919, 211, -26460, -115080, 7840, -385, 340, -199
22319, 269, 898, 228, -23730, -102900, 7700, -399, 334, -195
22320, 269, 896, 231, -21490, -94290, 7560, -406, 340, -201
22321, 334, 927, 237, -17780, -77980, 7280, -391, 340, -208
22322, 332, 937, 239, -16170, -68880, 6930, -393, 337, -204
22323, 326, 943, 244, -14700, -61040, 6230, -397, 334, -216
22324, 356, 952, 248, -13160, -53970, 5180, -409, 340, -211
22325, 434, 945, 251, -11130, -44100, 4340, -406, 337, -226
22326, 373, 894, 267, -6230, -22750, 2520, -418, 339, -216
22327, 300, 871, 269, -4270, -18130, 1330, -405, 333, -219
22328, 248, 878, 258, -2800, -16450, 210, -417, 340, -219
22329, 201, 903, 244, -1540, -14910, -1050, -409, 334, -229
22330, 207, 970, 224, -280, -12250, -3850, -406, 343, -217
22331, 269, 987, 225, 140, -8680, -4760, -414, 337, -216
22332, 289, 991, 227, 700, -3150, -5110, -411, 342, -229
22333, 261, 986, 230, 1190, 2310, -5040, -408, 334, -237
22334, 189, 965, 222, 1820, 6020, -4970, -402, 331, -231
22335, 59, 933, 196, 2870, 8260, -5110, -414, 339, -222
22336, 57, 936, 193, 3430, 8190, -5460, -409, 333, -219
22337, 33, 942, 194, 3850, 7490, -5810, -397, 336, -226
22338, -4, 935, 197, 3500, 3290, -6230, -408, 336, -216
22339, 58, 948, 210, 2940, -4130, -7000, -409, 331, -222
22340, 206, 1075, 195, 2170, -2800, -6860, -399, 333, -223
22341, 311, 1084, 202, 2520, 5600, -5880, -408, 340, -223
22342, 279, 1019, 185, 3710, 21350, -4200, -396, 339, -217
22343, 184, 942, 181, 5180, 33810, -2800, -403, 340, -213
22344, 33, 846, 185, 7980, 42980, -1610, -403, 325, -219
22345, -30, 847, 183, 8610, 40040, -1960, -399, 345, -211
22346, 4, 901, 196, 8750, 34020, -3010, -412, 342, -210
22347, 29, 1006, 191, 8260, 26670, -4200, -411, 342, -202
22348, 68, 1071, 197, 7070, 18620, -5180, -411, 336, -207
22349, 17, 1079, 176, 3080, 2310, -7140, -406, 342, -216
22350, -7, 1038, 166, 1330, -4130, -8120, -408, 340, -216
22351, 5, 979, 158, 560, -7980, -8750, -399, 339, -213
22352, 33, 916, 167, 910, -7910, -8960, -399, 328, -210
22353, -11, 895, 188, 1330, -15050, -9380, -390, 336, -204
22354, -115, 985, 210, 280, -27440, -10080, -391, 328, -217
22355, -149, 1047, 201, -1820, -43750, -11340, -400, 337, -214
22356, -67, 1074, 182, -4270, -56840, -12670, -402, 336, -220
22357, 34, 1070, 159, -5880, -60550, -13230, -396, 331, -216
22358, 31, 977, 166, -7770, -56070, -12460, -399, 331, -222
22359, 4, 922, 187, -8470, -56840, -12110, -402, 330, -219
22360, 57, 905, 205, -8400, -59290, -12110, -399, 324, -223
22361, 50, 954, 211, -7490, -56770, -11480, -399, 330, -226
22362, 125, 959, 232, -5880, -52500, -10640, -397, 330, -231
22363, 131, 968, 227, -2940, -40740, -8750, -405, 330, -237
22364, 117, 984, 204, -2450, -34020, -7560, -399, 330, -240
22365, 100, 994, 204, -2800, -29750, -6510, -405, 333, -234
22366, 42, 1010, 193, -3500, -27090, -5600, -394, 334, -234
22367, 39, 993, 208, -3990, -20860, -3640, -403, 333, -240
22368, 22, 964, 229, -3220, -17080, -2520, -399, 330, -241
22369, 35, 957, 234, -2100, -12880, -1470, -406, 334, -238
22370, 75, 941, 253, -980, -9590, -490, -403, 339, -247
22371, 88, 944, 245, -210, -6930, 350, -399, 333, -241
22372, 72, 984, 233, 140, -3360, 1050, -408, 331, -247
22373, 48, 998, 235, -350, -3500, 1190, -409, 328, -232
22374, 20, 994, 239, -1120, -4900, 1050, -396, 330, -243
22375, 21, 982, 251, -2030, -7700, 770, -393, 330, -250
22376, 36, 976, 258, -2660, -10780, 350, -408, 334, -243
22377, 94, 948, 276, -2870, -13930, -280, -399, 334, -240
22378, 111, 933, 285, -2380, -13930, -490, -400, 324, -243
22379, 80, 936, 280, -1960, -13790, -700, -403, 337, -243
22380, 66, 946, 281, -1750, -14490, -910, -411, 327, -256
22381, 61, 963, 273, -1960, -16870, -1680, -402, 333, -238
22382, 51, 977, 273, -2450, -19390, -2100, -409, 330, -240
22383, 57, 972, 278, -3220, -22190, -2590, -399, 325, -259
22384, 64, 975, 280, -3850, -24640, -3150, -411, 330, -243
22385, 71, 978, 282, -4340, -26250, -3360, -402, 333, -249
22386, 76, 948, 294, -4270, -27440, -3850, -396, 327, -250
22387, 66, 936, 299, -3920, -26740, -4060, -415, 333, -256
22388, 71, 938, 296, -3640, -26530, -4060, -408, 325, -252
22389, 78, 940, 298, -3290, -25480, -3920, -409, 334, -253
22390, 71, 941, 296, -3150, -24360, -3640, -409, 328, -262
22391, 43, 966, 294, -3360, -23450, -3430, -414, 333, -256
22392, 37, 976, 299, -3640, -23660, -3430, -403, 324, -271
22393, 33, 981, 301, -3920, -24220, -3430, -400, 336, -264
22394, 28, 972, 306, -4340, -25760, -3500, -409, 334, -264
22395, 30, 950, 309, -5250, -30800, -3640, -411, 325, -258
22396, 46, 943, 306, -5530, -32900, -3640, -409, 333, -262
22397, 54, 942, 314, -5250, -33320, -3710, -411, 324, -268
22398, 57, 938, 316, -4900, -32480, -3570, -415, 334, -271
22399, 62, 937, 319, -4480, -30800, -3360, -418, 333, -265
22400, 114, 970, 319, -3990, -26530, -2940, -412, 328, -282
22401, 125, 982, 315, -3780, -22890, -2450, -414, 336, -270
22402, 118, 974, 312, -3500, -19460, -2030, -415, 327, -277
22403, 106, 964, 318, -3360, -16380, -1680, -405, 321, -261
22404, 96, 962, 321, -3010, -12880, -1330, -408, 333, -267
22405, 85, 925, 316, -1820, -6160, -630, -409, 327, -268
22406, 84, 909, 326, -1330, -4690, -350, -409, 331, -270
22407, 72, 922, 328, -1050, -4410, -280, -408, 322, -271
22408, 79, 949, 329, -840, -4410, -210, -414, 327, -271
22409, 78, 966, 328, -700, -3570, -420, -408, 330, -276
22410, 77, 959, 326, -1050, -4270, -700, -415, 322, -274
22411, 92, 964, 330, -1470, -4830, -770, -414, 331, -270
22412, 113, 962, 327, -1610, -4690, -770, -406, 334, -273
22413, 114, 950, 328, -1470, -2310, -490, -412, 325, -271
22414, 64, 905, 339, -490, 2240, 0, -412, 328, -274
22415, 64, 906, 345, -70, 2730, -70, -415, 330, -283
22416, 89, 932, 341, 490, 2940, -140, -415, 327, -276
22417, 94, 942, 338, 910, 3150, -280, -417, 324, -271
22418, 88, 945, 336, 770, 1540, -560, -415, 322, -277
22419, 50, 957, 338, -560, -4900, -1610, -412, 331, -268
22420, 44, 968, 332, -1400, -8050, -2170, -420, 331, -265
22421, 41, 961, 333, -1960, -10080, -2450, -405, 324, -271
22422, 47, 940, 343, -2310, -10850, -2590, -420, 327, -276
22423, 72, 943, 345, -2240, -10850, -2660, -417, 325, -265
22424, 86, 956, 349, -2310, -11060, -2800, -421, 315, -274
22425, 80, 969, 350, -2380, -11620, -2940, -414, 322, -274
22426, 74, 961, 352, -2450, -12250, -3220, -421, 333, -268
22427, 81, 957, 359, -2380, -12810, -3500, -408, 327, -279
22428, 95, 959, 341, -1330, -10710, -3640, -417, 324, -270
22429, 91, 957, 341, -1050, -9940, -3570, -421, 325, -274
22430, 52, 949, 333, -1330, -10500, -3640, -420, 328, -280
22431, 19, 952, 334, -1960, -12740, -3780, -411, 322, -276
22432, 12, 959, 333, -2940, -15330, -4060, -421, 325, -262
22433, 50, 938, 343, -3640, -16660, -4480, -412, 321, -279
22434, 71, 920, 352, -3640, -16170, -4550, -409, 318, -270
22435, 86, 900, 362, -3500, -15400, -4480, -417, 321, -274
22436, 106, 902, 373, -2940, -13790, -4340, -420, 321, -274
22437, 158, 951, 376, -770, -4130, -3710, -414, 315, -274
22438, 161, 925, 383, 350, 1470, -3430, -408, 313, -282
22439, 124, 898, 375, 1120, 5600, -3150, -412, 324, -273
22440, 125, 902, 371, 1680, 8680, -2940, -411, 316, -292
22441, 115, 927, 360, 2170, 11830, -2660, -420, 316, -279
22442, 89, 960, 368, 2520, 16380, -2100, -405, 319, -274
22443, 76, 943, 374, 2240, 16170, -2030, -417, 322, -282
22444, 92, 954, 373, 1960, 15680, -1820, -408, 319, -277
22445, 103, 960, 365, 2380, 17220, -1470, -417, 316, -274
22446, 149, 950, 370, 3220, 20440, -490, -408, 316, -280
22447, 104, 899, 380, 4480, 26460, -70, -406, 318, -277
22448, 73, 927, 362, 4550, 26740, 210, -411, 318, -271
22449, 97, 956, 349, 4480, 26390, 490, -414, 319, -273
22450, 64, 965, 342, 4340, 27020, 770, -412, 309, -267
22451, -18, 940, 354, 3430, 23240, 1330, -414, 319, -276
22452, 3, 959, 354, 2590, 18900, 1610, -405, 310, -273
22453, 39, 977, 340, 2240, 16520, 1960, -402, 322, -262
22454, 68, 984, 353, 2590, 16870, 2310, -403, 319, -277
22455, 76, 976, 345, 2870, 18690, 2800, -405, 315, -271
22456, 94, 908, 340, 3080, 21770, 3780, -400, 313, -264
22457, 90, 891, 337, 2800, 23030, 4130, -412, 325, -271
22458, 85, 908, 341, 2870, 23800, 4620, -403, 318, -265
22459, 122, 949, 344, 3430, 25900, 5180, -406, 325, -268
22460, 106, 957, 352, 4760, 31850, 6650, -403, 313, -262
22461, 67, 945, 345, 4690, 31850, 7140, -412, 316, -256
22462, 58, 962, 321, 4060, 30940, 7420, -412, 322, -259
22463, 64, 956, 329, 3290, 29050, 7630, -402, 324, -249
22464, 55, 928, 337, 2380, 27160, 7840, -397, 321, -270
22465, 74, 915, 346, 1540, 22890, 7910, -408, 321, -255
22466, 93, 938, 342, 1750, 21770, 7840, -402, 312, -253
22467, 84, 922, 350, 1820, 20370, 7770, -402, 316, -258
22468, 65, 903, 362, 1820, 17640, 7350, -405, 310, -250
22469, 109, 934, 358, 1820, 14560, 6860, -405, 319, -255
22470, 166, 971, 331, 2030, 14490, 5740, -409, 315, -261
22471, 145, 960, 336, 1820, 14980, 5040, -409, 316, -261
22472, 137, 953, 332, 770, 13020, 4340, -408, 322, -264
22473, 143, 966, 331, -210, 10920, 3710, -403, 318, -250
22474, 150, 999, 328, -630, 10710, 2800, -409, 322, -252
22475, 62, 876, 343, -420, 10570, 2310, -403, 316, -243
22476, 39, 857, 340, -560, 7420, 1820, -411, 319, -253
22477, 51, 895, 336, -770, 3430, 1330, -406, 322, -252
22478, 79, 949, 334, -490, 2170, 1050, -400, 328, -256
22479, 85, 1004, 322, -210, 2030, 420, -415, 321, -252
22480, 35, 1014, 327, -1400, -700, 140, -403, 328, -267
22481, -12, 995, 321, -3570, -5810, -490, -411, 327, -255
22482, 1, 988, 321, -5250, -11760, -1050, -411, 330, -249
22483, 45, 972, 344, -5600, -14210, -1470, -402, 328, -256
22484, 177, 979, 331, -2030, -4410, -980, -408, 325, -258
22485, 168, 943, 321, -350, 1330, -700, -400, 324, -253
22486, 131, 962, 315, 0, 3850, -770, -400, 327, -265
22487, 136, 975, 304, -700, 5040, -700, -393, 333, -256
22488, 164, 1005, 296, -980, 14280, -210, -397, 313, -259
22489, 154, 882, 295, -140, 19600, 210, -411, 324, -265
22490, 138, 848, 315, 630, 23520, 630, -402, 325, -258
22491, 168, 902, 304, 1680, 26880, 1190, -411, 339, -261
22492, 194, 957, 306, 2870, 29820, 1540, -400, 333, -256
22493, 81, 1011, 295, 2870, 27160, 770, -402, 336, -250
22494, 62, 1006, 288, 1120, 20020, -350, -411, 324, -255
22495, 73, 983, 278, -910, 12110, -1330, -406, 322, -246
22496, 139, 917, 299, -1890, 8120, -2030, -399, 331, -238
22497, 165, 888, 272, -1190, 9100, -2520, -399, 322, -244
22498, 143, 870, 270, 2240, 19600, -2450, -400, 322, -243
22499, 122, 906, 275, 2870, 21630, -2450, -403, 313, -232
22500, 102, 979, 295, 2450, 19460, -2730, -403, 319, -241
22501, 134, 1068, 274, 1680, 15330, -3290, -391, 322, -246
22502, 154, 1077, 253, 2100, 14420, -4760, -399, 328, -247
22503, 104, 817, 237, 2450, 15330, -5180, -402, 322, -235
22504, 46, 696, 246, 2310, 14070, -5670, -393, 318, -243
22505, 64, 730, 228, 2240, 11060, -5950, -394, 321, -238
22506, 143, 851, 233, 3290, 12460, -5810, -399, 322, -243
22507, 184, 1047, 268, 6790, 24570, -5250, -400, 312, -237
22508, 139, 1096, 281, 6930, 26740, -5250, -399, 330, -244
22509, 117, 1147, 253, 5670, 23730, -5530, -403, 315, -231
22510, 115, 1137, 246, 4200, 20020, -5670, -385, 319, -240
22511, 76, 1066, 242, 3290, 18340, -5740, -399, 318, -228
22512, 3, 836, 211, 3010, 19600, -5600, -393, 310, -241
22513, 0, 811, 213, 2730, 18200, -5320, -396, 312, -232
22514, -2, 862, 217, 2450, 15540, -4970, -390, 313, -228
22515, 37, 953, 233, 2380, 13580, -4690, -391, 309, -229
22516, 43, 1066, 263, 2520, 12320, -4550, -396, 324, -238
22517, 35, 1101, 273, 1960, 9660, -4690, -394, 310, -237
22518, 65, 1166, 247, 1400, 6790, -5040, -391, 309, -235
22519, 38, 1113, 230, 420, 5180, -5320, -378, 313, -237
22520, -4, 1019, 233, -630, 2940, -5670, -384, 306, -235
22521, -44, 873, 230, -3570, -6370, -6440, -387, 309, -238
22522, -4, 863, 228, -3990, -8750, -6650, -393, 313, -240
22523, 13, 848, 227, -3570, -7490, -6510, -385, 312, -238
22524, -30, 841, 270, -3010, -6160, -6860, -390, 316, -232
22525, 26, 944, 270, -2800, -6720, -7070, -391, 312, -232
22526, 126, 1062, 292, -1400, -1400, -6860, -390, 309, -232
22527, 114, 1024, 282, -560, 3990, -6720, -388, 313, -243
22528, 87, 982, 292, -210, 6790, -6510, -394, 312, -232
22529, 58, 984, 248, -280, 9310, -6230, -390, 306, -234
22530, 13, 996, 225, -700, 13230, -5390, -387, 310, -237
22531, 17, 1032, 268, -1540, 12320, -5110, -387, 312, -241
22532, 23, 1076, 257, -2590, 11340, -4970, -396, 316, -234
22533, -4, 1048, 254, -3850, 8610, -4970, -385, 312, -237
22534, -66, 844, 288, -4900, 5600, -5110, -387, 307, -244
22535, -76, 716, 316, -3010, -2310, -5180, -385, 315, -234
22536, 87, 893, 274, 280, -420, -4200, -384, 315, -241
22537, 77, 978, 301, 3920, 8190, -3220, -381, 319, -241
22538, -69, 930, 332, 5180, 9870, -3080, -384, 318, -241
22539, -152, 997, 309, 3500, 2100, -3360, -381, 318, -241
22540, -86, 1145, 247, -1750, -12600, -2800, -385, 315, -244
22541, -100, 1071, 274, -3010, -12670, -2450, -384, 327, -241
22542, -151, 1008, 264, -3990, -13300, -1750, -382, 316, -241
22543, -150, 997, 288, -4690, -15400, -910, -390, 328, -240
22544, -52, 971, 261, -3780, -9100, 2100, -381, 313, -238
22545, -78, 866, 278, -2660, -3710, 3780, -399, 322, -237
22546, -116, 770, 325, -1750, 840, 5390, -385, 325, -240
22547, -67, 824, 294, -770, 2870, 7070, -391, 330, -238
22548, 46, 965, 286, 1120, 8400, 9170, -394, 315, -237
22549, 85, 1018, 314, 4620, 27020, 13300, -387, 316, -229
22550, 65, 1020, 349, 4690, 28840, 14140, -375, 322, -232
22551, 107, 1065, 319, 4340, 28700, 15120, -396, 325, -225
22552, 216, 1056, 274, 5250, 34300, 16240, -385, 306, -238
22553, 194, 914, 228, 6790, 44450, 17920, -387, 316, -217
22554, 4, 681, 285, 6370, 46830, 19250, -390, 316, -228
22555, 71, 870, 245, 5110, 40670, 19460, -382, 321, -214
22556, 165, 1054, 266, 4340, 37660, 20020, -385, 310, -219
22557, 165, 1103, 299, 4550, 38710, 19950, -385, 310, -223
22558, 80, 1007, 336, 1540, 25830, 17710, -391, 313, -219
22559, 68, 1013, 297, -210, 16170, 16450, -381, 313, -225
22560, 169, 964, 287, -700, 12670, 15610, -385, 318, -216
22561, 129, 876, 261, -630, 14070, 14700, -384, 310, -216
22562, 98, 781, 293, -560, 12530, 13510, -387, 319, -214
22563, 206, 900, 313, -1050, 6860, 11410, -393, 316, -219
22564, 291, 1014, 310, 280, 11130, 10780, -384, 313, -228
22565, 324, 1069, 327, 2170, 18130, 10080, -388, 321, -217
22566, 225, 1074, 335, 3150, 22330, 9030, -387, 310, -213
22567, 266, 1024, 354, 3360, 22470, 7000, -385, 310, -213
22568, 297, 814, 297, 3710, 24570, 6300, -381, 318, -214
22569, 143, 411, 279, 5110, 28630, 5600, -376, 312, -210
22570, 138, 213, 284, 7910, 31290, 5320, -378, 315, -214
22571, 199, 564, 248, 11410, 37590, 5950, -387, 319, -211
22572, 189, 1231, 347, 16520, 50680, 6720, -387, 313, -207
22573, 264, 1354, 381, 14840, 44520, 6160, -390, 313, -199
22574, 145, 1614, 312, 10990, 35490, 4620, -388, 322, -196
22575, 206, 1522, 276, 5810, 22680, 3080, -385, 319, -196
22576, 2, 1373, 225, 910, 14770, 700, -379, 321, -201
22577, -13, 770, 221, -7140, -2380, -1960, -385, 313, -207
22578, 116, 497, 293, -7840, -5040, -1890, -391, 316, -205
22579, 106, 446, 344, -3710, 3360, -1190, -385, 324, -205
22580, 323, 571, 332, 4900, 23310, 770, -378, 318, -202
22581, 414, 843, 324, 21560, 71960, 5320, -379, 325, -195
22582, 173, 1132, 275, 21070, 73010, 6090, -385, 322, -193
22583, 102, 1487, 272, 14140, 56630, 5180, -384, 324, -183
22584, 90, 1734, 156, 4550, 34930, 4270, -384, 327, -186
22585, 103, 1708, 151, -4410, 18690, 3010, -387, 325, -171
22586, -358, 733, 218, -17290, -8400, 490, -381, 324, -181
22587, -343, 457, 232, -19040, -21210, 1050, -382, 325, -180
22588, -223, 326, 280, -15400, -19810, 2870, -382, 316, -187
22589, 64, 373, 332, -6160, -4480, 5250, -382, 325, -178
22590, 104, 664, 311, 4410, 17850, 8260, -384, 318, -183
22591, 81, 1276, 329, 12880, 31850, 12600, -387, 318, -172
22592, -8, 1532, 294, 8610, 17430, 12460, -385, 319, -183
22593, -78, 1663, 177, 980, -350, 11900, -382, 310, -166
22594, -146, 1523, 112, -7280, -17080, 10780, -384, 316, -174
22595, -359, 1230, 111, -24150, -54320, 7910, -375, 315, -169
22596, -391, 783, 177, -29470, -71610, 7140, -384, 327, -180
22597, -242, 698, 230, -29120, -76090, 6860, -400, 316, -175
22598, -28, 656, 301, -23170, -64610, 7420, -385, 324, -184
22599, 73, 604, 343, -13650, -42560, 8750, -391, 315, -183
22600, 92, 846, 329, 2380, -11900, 11970, -393, 324, -189
22601, 56, 1073, 244, 4830, -10080, 12810, -388, 324, -196
22602, -18, 1189, 208, 2380, -16240, 13090, -393, 327, -190
22603, -238, 1196, 147, -3920, -29540, 12250, -399, 322, -178
22604, -372, 1109, 152, -12600, -51170, 10640, -406, 330, -181
22605, -302, 927, 182, -24500, -82810, 7980, -393, 328, -195
22606, -155, 732, 255, -23450, -80220, 7910, -397, 318, -192
22607, -84, 594, 329, -17920, -66430, 8470, -403, 330, -199
22608, 97, 646, 388, -9520, -49770, 10150, -409, 331, -213
22609, 183, 856, 365, 7490, -10570, 14840, -403, 325, -213
22610, 149, 1365, 74, 8960, 2100, 16800, -412, 337, -216
22611, -173, 988, 236, 1750, -7140, 16170, -408, 330, -213
22612, -451, 1045, 168, -11900, -44240, 12810, -415, 339, -216
22613, -182, 1338, 165, -23870, -79450, 9870, -411, 328, -219
22614, 259, 1151, 314, -23520, -63070, 8400, -414, 336, -223
22615, 105, 868, 415, -16310, -41790, 8680, -411, 331, -228
22616, 125, 668, 397, -10080, -29890, 9100, -418, 345, -231
22617, 213, 699, 361, -4270, -23450, 9870, -412, 339, -226
22618, 319, 989, 296, 1400, -12040, 10780, -411, 351, -240
22619, 112, 960, 195, 4830, 9450, 12390, -418, 345, -231
22620, -69, 899, 173, -910, -2730, 10780, -418, 345, -234
22621, -122, 969, 199, -9170, -24570, 8400, -421, 346, -237
22622, 75, 1294, 136, -14980, -39900, 6790, -421, 345, -229
22623, 205, 1282, 301, -16240, -27930, 5320, -417, 351, -235
22624, 85, 454, 454, -13230, -26320, 3710, -420, 346, -225
22625, 217, 383, 441, -6440, -24570, 2590, -435, 333, -240
22626, 434, 432, 264, 4900, -6510, 3780, -420, 346, -244
22627, 546, 243, 109, 17360, 28770, 6790, -423, 333, -238
22628, -158, -19, 232, 23940, 44100, 7280, -429, 339, -235
22629, 55, 1122, 198, 16940, 10990, 4830, -426, 345, -231
22630, 451, 2553, 109, 10010, -8120, 3080, -426, 333, -226
22631, 662, 2858, 275, 3780, -5040, 1820, -424, 334, -235
22632, 306, 2206, 409, -4970, -5880, -1470, -424, 343, -232
22633, 66, 999, 268, -22190, -53550, -9450, -420, 328, -238
22634, 301, 581, 169, -19670, -52080, -10360, -424, 339, -240
22635, 427, 87, 153, -9030, -20860, -9170, -421, 336, -246
22636, 315, -333, 232, 2800, 16520, -6930, -412, 334, -250
22637, 23, 145, 239, 15050, 28980, -6860, -423, 333, -244
22638, 396, 1050, 214, 18270, 30100, -6930, -420, 325, -229
22639, 714, 1779, 228, 20440, 41650, -5740, -427, 331, -241
22640, 591, 1860, 311, 18060, 51100, -5810, -420, 333, -237
22641, 292, 1619, 353, 9730, 35350, -8400, -420, 337, -246
22642, 264, 1067, 166, -6020, -5040, -13790, -423, 321, -244
22643, 225, 548, 131, -5040, 4410, -13930, -421, 330, -241
22644, 112, 169, 159, -1260, 20440, -13020, -406, 328, -246
22645, -80, 129, 211, 1120, 25340, -12670, -418, 333, -228
22646, 3, 540, 241, 1820, 18130, -12740, -408, 321, -246
22647, 375, 1543, 375, 3850, 17290, -12460, -408, 327, -244
22648, 336, 1561, 400, 4970, 20090, -13160, -412, 328, -237
22649, 191, 1358, 353, 4200, 13650, -14560, -412, 321, -237
22650, 70, 1051, 309, 1750, -350, -16170, -402, 324, -243
22651, -49, 545, 143, -1190, -13650, -18410, -417, 331, -241
22652, -136, 382, 122, -1680, -15120, -19180, -403, 324, -247
22653, -190, 446, 205, -2450, -19110, -19460, -414, 336, -238
22654, -22, 878, 261, -2730, -23100, -19320, -405, 328, -244
22655, 198, 1403, 348, -1120, -20020, -18760, -406, 331, -250
22656, 300, 1565, 397, 6230, 3640, -17430, -408, 318, -247
22657, 309, 1307, 285, 8610, 11060, -16380, -406, 331, -244
22658, 153, 994, 231, 9030, 14630, -15260, -399, 318, -241
22659, -21, 722, 162, 7630, 14350, -14280, -408, 324, -231
22660, -164, 548, 101, 4900, 10150, -13370, -397, 327, -237
22661, -165, 484, 113, -420, -280, -11410, -406, 328, -234
22662, -71, 683, 201, -1050, -910, -10500, -403, 318, -231
22663, 93, 1111, 212, -420, 1680, -9380, -396, 319, -231
22664, 149, 1371, 267, 420, 7420, -8190, -402, 321, -240
22665, -8, 1215, 312, -3430, 5670, -7840, -406, 312, -235
22666, -16, 1128, 247, -7560, -5250, -8400, -396, 321, -238
22667, -111, 951, 267, -10990, -11970, -8400, -400, 315, -235
22668, 9, 834, 421, -9380, -14140, -8750, -405, 313, -250
22669, 117, 944, 434, -3430, -7070, -7910, -400, 307, -247
22670, 284, 801, 278, 15190, 35630, -2940, -400, 306, -235
22671, 124, 659, 285, 19670, 47180, -1540, -394, 309, -234
22672, -138, 809, 208, 16730, 34790, -1120, -393, 303, -237
22673, -111, 1186, 131, 9170, 10500, -1890, -391, 303, -234
22674, -76, 1374, 102, 420, -9940, -2730, -393, 303, -237
22675, -222, 1078, 239, -13720, -34930, -6860, -391, 313, -232
22676, -268, 956, 280, -18480, -49560, -9660, -394, 309, -243
22677, -50, 924, 290, -18900, -58240, -11270, -394, 304, -249
22678, 157, 829, 307, -13650, -50190, -11830, -385, 298, -243
22679, 134, 616, 305, 1820, -7630, -10570, -394, 300, -240
22680, 60, 732, 258, 4130, -1190, -10360, -402, 294, -244
22681, -13, 977, 224, 2240, -7700, -10990, -394, 306, -247
22682, 112, 1146, 269, -1470, -15680, -12180, -387, 301, -238
22683, 194, 1287, 258, -3850, -17360, -13510, -402, 300, -243
22684, 248, 1142, 293, -3010, 1890, -14910, -391, 303, -250
22685, 267, 957, 275, -2240, 10360, -15120, -388, 300, -244
22686, 202, 797, 219, -1470, 17920, -14840, -381, 301, -250
22687, 247, 666, 233, -630, 25410, -14210, -402, 298, -244
22688, 198, 755, 225, 1330, 42350, -11690, -382, 300, -240
22689, 269, 975, 293, 6090, 51380, -10080, -388, 313, -228
22690, 265, 965, 267, 8260, 57540, -9380, -385, 306, -237
22691, 278, 929, 326, 9730, 60690, -8890, -393, 310, -225
22692, 347, 1047, 291, 10850, 62440, -8960, -388, 306, -228
22693, 361, 1016, 245, 12180, 66220, -9240, -391, 309, -223
22694, 243, 835, 222, 10640, 63980, -9870, -388, 303, -225
22695, 129, 704, 194, 8330, 56770, -11060, -384, 309, -213
22696, 76, 736, 211, 5460, 45010, -12110, -388, 303, -210
22697, 115, 974, 192, 3500, 34930, -13020, -376, 306, -198
22698, 84, 1070, 314, 1820, 26110, -14630, -384, 306, -202
22699, 91, 1084, 336, 1050, 20090, -16170, -379, 300, -205
22700, 96, 1168, 276, 490, 15540, -17710, -372, 297, -195
22701, 175, 1143, 288, 350, 12950, -18620, -381, 292, -198
22702, 68, 994, 256, -910, 10570, -20650, -375, 297, -204
22703, 20, 748, 298, -2240, 5670, -21980, -367, 297, -210
22704, 82, 789, 233, -2310, 4480, -23030, -373, 303, -201
22705, 128, 793, 241, -560, 9730, -23380, -364, 292, -210
22706, 161, 754, 306, 1960, 19600, -23310, -370, 291, -208
22707, 219, 1069, 324, 6370, 30730, -23590, -369, 294, -193
22708, 314, 1214, 356, 8120, 37240, -23310, -361, 295, -202
22709, 314, 1243, 294, 10010, 45430, -23030, -363, 283, -199
22710, 166, 1036, 249, 10780, 54530, -22890, -361, 286, -199
22711, 59, 689, 253, 9100, 52640, -23380, -360, 288, -208
22712, 30, 748, 205, 3570, 38150, -23170, -364, 282, -201
22713, 2, 890, 193, 2240, 34090, -22750, -351, 283, -198
22714, 33, 962, 299, 2100, 32970, -22120, -348, 289, -199
22715, -51, 1028, 362, 3150, 34020, -22330, -349, 283, -186
22716, 114, 1126, 416, 8960, 44660, -19880, -357, 288, -196
22717, 223, 1012, 275, 13300, 57890, -17500, -348, 286, -186
22718, -16, 774, 242, 15330, 68880, -15680, -343, 288, -189
22719, -100, 630, 244, 13090, 65660, -14420, -348, 288, -189
22720, -181, 788, 205, 8820, 49910, -13650, -349, 289, -183
22721, 58, 1437, 218, 3080, 36050, -10430, -346, 280, -174
22722, -33, 1398, 295, 2100, 38290, -9730, -360, 292, -172
22723, -194, 1340, 295, -210, 34510, -10360, -351, 297, -171
22724, -165, 1279, 322, -3780, 20720, -10850, -339, 291, -175
22725, -106, 1160, 245, -6160, 13510, -10640, -339, 291, -169
22726, -218, 402, 202, -4900, 14910, -9380, -348, 288, -168
22727, -225, 293, 242, -3920, 14840, -9030, -339, 283, -168
22728, -151, 643, 206, -3220, 11830, -8470, -333, 276, -175
22729, -51, 1007, 222, -2310, 12390, -7350, -336, 292, -165
22730, -62, 1177, 338, -420, 14770, -7140, -327, 273, -171
22731, -25, 1426, 293, -210, 14000, -7630, -334, 277, -163
22732, -58, 1325, 304, -770, 10990, -7630, -334, 274, -160
22733, -163, 1119, 262, -1960, 7420, -7700, -342, 274, -165
22734, -306, 855, 217, -4130, -980, -7980, -340, 276, -171
22735, -373, 591, 181, -8820, -24500, -9240, -328, 265, -171
22736, -378, 676, 190, -9730, -30030, -9660, -334, 277, -166
22737, -224, 840, 208, -9590, -32550, -9240, -333, 267, -181
22738, -148, 1041, 209, -8050, -26460, -9310, -330, 268, -178
22739, -156, 1061, 318, -6650, -17990, -8960, -321, 261, -178
22740, 158, 1261, 302, -1260, 5810, -7420, -331, 265, -192
22741, 327, 1133, 257, 4200, 30730, -4480, -330, 274, -177
22742, 187, 752, 246, 9870, 60900, -770, -325, 265, -175
22743, 201, 607, 233, 13300, 81970, 2520, -325, 270, -168
22744, 143, 881, 177, 13720, 102690, 9100, -325, 271, -162
22745, 285, 1125, 163, 13020, 114380, 13440, -330, 267, -163
22746, 394, 1285, 220, 11900, 122150, 16660, -322, 262, -145
22747, 391, 1405, 214, 10150, 128450, 19670, -328, 267, -138
22748, 237, 1368, 142, 7420, 128660, 21840, -331, 274, -138
22749, 92, 1197, 252, 770, 116480, 26250, -327, 282, -114
22750, 51, 991, 227, -910, 108640, 28630, -330, 283, -115
22751, -6, 774, 161, -560, 103180, 31080, -334, 289, -109
22752, -123, 598, 141, -280, 98280, 33880, -334, 285, -108
22753, -210, 604, 203, -980, 87360, 36190, -337, 289, -85
22754, -107, 1149, 179, -5320, 56980, 39690, -340, 285, -84
22755, -77, 1356, 170, -7490, 45220, 40950, -336, 294, -87
22756, -189, 1426, 206, -10500, 34930, 41860, -342, 289, -78
22757, -157, 1467, 215, -14490, 22960, 41720, -348, 295, -87
22758, -245, 1039, 149, -22610, -5040, 39970, -346, 286, -84
22759, -185, 912, 132, -24360, -14140, 38920, -339, 297, -85
22760, -86, 812, 164, -24150, -15680, 38220, -349, 286, -82
22761, -34, 462, 266, -21910, -10850, 37170, -340, 301, -94
22762, -28, 56, 215, -17080, -7420, 37380, -352, 289, -88
22763, 335, 178, 181, -140, 22890, 39410, -348, 307, -85
22764, 543, 27, 257, 10500, 45150, 39830, -360, 295, -87
22765, 123, -33, 244, 19040, 63420, 39830, -358, 307, -79
22766, 236, -61, 249, 24920, 69440, 38850, -361, 295, -75
22767, 123, 69, 129, 30590, 76510, 38080, -354, 313, -66
22768, 196, 89, 135, 43680, 97860, 38150, -372, 292, -60
22769, 284, 213, 172, 48930, 105700, 38780, -376, 306, -45
22770, 920, 3478, -144, 52920, 107170, 40180, -364, 303, -40
22771, 646, 3997, -680, 57330, 106610, 39480, -363, 301, -43
22772, -301, 3997, 61, -39340, -28560, 21420, -361, 312, -36
22773, 111, 2902, 95, -87290, -151480, 20160, -381, 321, -46
22774, 19, 866, -200, -106120, -215670, 17360, -367, 319, -66
22775, 168, 584, -393, -97720, -227990, 21280, -366, 325, -76
22776, 1090, 190, -186, -78890, -153090, 27720, -373, 318, -90
22777, -813, -848, 144, -71400, -104370, 28280, -376, 330, -100
22778, -1372, -563, 50, -85120, -187740, 21770, -373, 327, -114
22779, -330, -52, -66, -90020, -244020, 20090, -387, 327, -135
22780, 178, 50, -340, -81060, -242200, 18830, -382, 339, -148
22781, 1130, -579, 525, -58030, -174720, 19460, -388, 334, -153
22782, 873, -108, 641, -2030, -59360, 14630, -385, 336, -162
22783, 1005, 278, 366, 28490, 11340, 15190, -388, 337, -150
22784, 816, 166, 247, 53550, 93450, 17640, -385, 328, -150
22785, 185, -301, 180, 66920, 145950, 18760, -391, 331, -133
22786, -560, -74, 138, 57330, 126560, 7910, -390, 337, -121
22787, -28, 2109, -35, 52990, 120540, -560, -382, 336, -111
22788, -368, 3997, -169, 49980, 151340, -6790, -393, 327, -103
22789, -404, 3997, -71, 35770, 162960, -11760, -388, 334, -91
22790, -904, 2993, 14, 3570, 109340, -18200, -382, 324, -96
22791, -20, 1517, -25, -68810, -88200, -22400, -387, 328, -100
22792, 401, 1142, -162, -73710, -107030, -18060, -390, 324, -103
22793, 247, 1217, -402, -63140, -70140, -9730, -390, 333, -121
22794, -338, 496, 12, -54040, -21140, -2800, -382, 319, -133
22795, -1479, -414, 70, -60690, -22400, -5460, -385, 321, -130
22796, -767, -439, 122, -84910, -169400, -18410, -390, 327, -159
22797, 499, -447, 848, -70700, -177940, -21280, -376, 322, -153
22798, 1875, 305, 605, -29400, -99680, -20510, -382, 321, -169
22799, 2077, 417, 592, 30450, 36050, -14770, -378, 324, -171
22800, 287, -80, 310, 117250, 256900, -1050, -387, 324, -151
22801, 170, 775, -116, 122080, 248430, -70, -387, 319, -123
22802, -731, 1924, -243, 98980, 211400, -3150, -381, 319, -121
22803, 428, 2854, 12, 67270, 101220, -6720, -379, 321, -111
22804, 450, 2731, -48, 37310, 34300, -12740, -376, 330, -91
22805, 55, 1220, -282, 16030, 22890, -19530, -372, 328, -88
22806, -89, 1121, -218, 11410, 20230, -22610, -369, 325, -105
22807, -562, 613, -84, 2170, 5390, -28210, -367, 328, -91
22808, -285, 595, -109, -9380, -28350, -34370, -375, 328, -97
22809, -149, 1266, -231, -19600, -62580, -42420, -370, 313, -102
22810, -30, 1769, -274, -34370, -67130, -45990, -370, 324, -105
22811, -373, 2005, -257, -47390, -86520, -50540, -378, 324, -118
22812, -653, 1703, 273, -61250, -131880, -58520, -361, 322, -138
22813, -160, 1841, 569, -64330, -166180, -66780, -357, 324, -141
22814, 1339, 807, -113, -29680, -71120, -67480, -364, 316, -145
22815, 765, 33, 13, -6580, 7070, -65380, -361, 309, -151
22816, -124, -493, 189, 2310, 33390, -66360, -360, 318, -154
22817, -591, -559, 216, -3850, 7350, -70280, -340, 303, -150
22818, -58, -90, -31, -10220, -22680, -74480, -354, 307, -151
22819, 735, 398, -200, 7210, 64610, -69580, -348, 282, -169
22820, 480, 81, -99, 19180, 125230, -64400, -336, 294, -163
22821, 12, -257, -90, 24570, 154420, -62370, -334, 292, -142
22822, -242, -397, 44, 23590, 147630, -63700, -334, 282, -135
22823, 270, -100, 231, 43400, 173530, -61670, -330, 279, -135
22824, 1722, 856, -102, 71750, 249760, -53830, -337, 274, -111
22825, 1457, 815, -78, 102340, 342790, -45430, -319, 265, -102
22826, 673, 890, 16, 120260, 384020, -39270, -315, 265, -70
22827, 474, 2040, -308, 119980, 368270, -38780, -324, 265, -39
22828, -61, 3691, -385, 71890, 247940, -44730, -313, 265, -16
22829, -596, 3268, -439, 37520, 157430, -50120, -310, 253, 1
22830, -855, 2276, -427, 7980, 75670, -55020, -312, 261, 4
22831, -534, 1478, -307, -13160, 10290, -56770, -310, 249, 6
22832, -113, 766, -232, -22680, -12530, -56490, -304, 247, 4
22833, 276, 20, -13, -15190, 14420, -51030, -304, 240, 0
22834, 203, 1, 27, -5740, 38990, -47180, -309, 247, -1
22835, 363, 89, 40, 4760, 67060, -44170, -310, 237, -6
22836, 299, 330, -58, 13930, 94500, -42070, -312, 238, 9
22837, 38, 626, -186, 18830, 124810, -45500, -300, 231, 16
22838, -926, 784, -244, 12040, 102340, -50470, -307, 241, 15
22839, -672, 854, -102, 2730, 63490, -54460, -307, 228, 31
22840, -197, 1116, 55, -140, 41510, -55930, -304, 225, 28
22841, 259, 1499, 81, 7910, 49140, -54390, -292, 226, 31
22842, 58, 1530, -152, 34370, 115080, -49490, -304, 226, 34
22843, -764, 1580, -399, 36890, 118160, -52990, -294, 226, 42
22844, -1272, 1377, -481, 25620, 77910, -59500, -303, 210, 48
22845, -1010, 1162, -337, 9240, 23520, -66640, -297, 210, 43
22846, -437, 977, -361, -3570, -17290, -68880, -297, 217, 39
22847, 491, 1064, -380, -2450, 20510, -62650, -288, 204, 52
22848, 66, 891, -281, -1330, 43190, -60340, -283, 202, 46
22849, -696, 686, -206, -8050, 28840, -60830, -288, 205, 42
22850, -561, 530, -24, -17500, -10290, -62860, -282, 199, 43
22851, -82, 601, -11, -10990, -11760, -59430, -280, 199, 33
22852, 565, 635, -180, 5460, 50750, -54320, -282, 195, 40
22853, -7, 518, -150, 20300, 95550, -52710, -283, 184, 49
22854, -1049, 565, -294, 28140, 100800, -56070, -291, 192, 48
22855, -770, 616, -184, 31780, 82670, -59640, -285, 198, 60
22856, 536, 655, -310, 47390, 124670, -56350, -277, 178, 72
22857, 71, 340, -252, 54600, 165060, -53830, -277, 168, 87
22858, -591, 57, -209, 52500, 161840, -52220, -280, 168, 99
22859, -670, 190, -244, 45220, 132930, -53760, -286, 166, 103
22860, -254, 828, -382, 39340, 108920, -53550, -297, 165, 108
22861, -604, 2282, -909, 37870, 129570, -61320, -288, 153, 118
22862, -1087, 2183, -944, 30170, 110460, -72100, -292, 154, 127
22863, -1290, 1709, -810, 15960, 63700, -83720, -286, 141, 136
22864, -950, 1249, -585, 1750, -140, -92750, -285, 142, 123
22865, -452, 711, -177, -6090, -30170, -94710, -280, 138, 127
22866, 827, 593, -194, 2660, 15540, -90300, -280, 126, 117
22867, 535, 213, -93, 9450, 50400, -84700, -277, 123, 124
22868, -212, 60, -129, 10990, 63140, -82460, -274, 117, 123
22869, -522, 454, -333, 7420, 44240, -81830, -277, 117, 138
22870, -699, 1612, -920, 1400, 9520, -90370, -265, 103, 130
22871, -440, 1253, -618, -700, 11410, -94780, -276, 105, 127
22872, -793, 760, -471, -5670, 1680, -96460, -268, 96, 124
22873, -423, 240, -199, -11340, -21840, -96180, -268, 94, 126
22874, -127, 141, -215, -13440, -35140, -92820, -258, 85, 111
22875, 304, 230, -287, -4270, 5040, -80290, -261, 82, 108
22876, -5, 108, -341, -140, 29680, -74480, -261, 82, 111
22877, -612, 198, -448, 770, 36190, -71820, -253, 72, 118
22878, -1879, 1119, -945, -2660, 11340, -76230, -249, 67, 105
22879, -1769, 2495, -2475, -13580, -122990, -107030, -255, 61, 97
22880, 383, 992, -1321, -12670, -69650, -112350, -249, 54, 96
22881, -572, 235, -950, -10430, -12880, -109060, -252, 45, 93
22882, -598, -10, -577, -12180, -30730, -104300, -243, 42, 87
22883, -884, 109, -610, -10990, -45500, -98560, -244, 43, 81
22884, -499, -169, -516, 210, -2730, -87360, -243, 28, 81
22885, -1356, -152, -614, 140, -11340, -86800, -243, 31, 75
22886, -1238, -100, -695, 1190, -18340, -91700, -243, 30, 70
22887, -804, -110, -789, 9030, 350, -93520, -237, 21, 76
22888, -308, -321, -611, 23170, 57540, -94360, -237, 16, 73
22889, -1134, -211, -397, 39130, 101290, -93940, -241, 9, 84
22890, -1354, 61, -387, 38430, 78540, -96040, -241, 3, 81
22891, -793, 170, -201, 37800, 65660, -96600, -228, 1, 85
22892, -922, 341, -206, 38500, 67060, -95270, -240, -18, 82
22893, -1419, 410, -160, 36610, 41790, -93870, -238, -27, 96
22894, -1166, 342, -100, 34440, 17010, -96110, -247, -34, 84
22895, -1048, 346, -104, 33670, -630, -97930, -241, -39, 79
22896, -582, 264, -48, 35420, -7840, -102200, -235, -46, 85
22897, -718, 266, -184, 38010, -5390, -104650, -243, -42, 76
22898, -671, 231, -213, 41160, 5320, -113120, -240, -66, 72
22899, -437, 241, -159, 41720, 9380, -117530, -240, -57, 70
22900, -567, 318, -226, 42910, 14280, -121240, -243, -69, 78
22901, -306, 279, -284, 42350, 16310, -124810, -231, -82, 69
22902, 147, 1194, 2179, 27440, 309400, -140280, -261, -91, 108
22903, -3997, -857, -254, 111930, -985670, 68670, -262, -58, 120
22904, -3862, 2724, -1485, -137200, 762860, -3640, -250, -70, 130
22905, 2094, -1461, -3997, 117180, -827610, -104860, -238, -60, 96
22906, -2365, 2959, -2479, -77910, 177730, -192710, -265, -78, 111
22907, -1547, 1621, -311, -15960, 135240, -127190, -250, -76, 96
22908, 1080, -1154, -3164, 9380, -135870, -11620, -253, -78, 100
22909, -1825, 2976, -559, -4760, 187250, -59640, -252, -82, 96
22910, -1177, -104, -2530, 31150, -107590, -16240, -261, -84, 82
22911, -788, 846, 1292, -23450, 182770, 1680, -255, -85, 85
22912, -285, 1213, 1111, -26600, 157640, 6790, -241, -87, 84
22913, -1460, 324, -1765, 21630, -193060, -19180, -252, -81, 91
22914, 120, 245, 1140, -20790, 132370, 12950, -243, -84, 85
22915, -1584, -122, -1333, 13370, -109340, -15400, -238, -87, 94
22916, -498, 417, 640, -13860, 61670, -5810, -244, -82, 91
22917, -384, 106, 242, -3430, 32270, 3850, -238, -85, 82
22918, -1027, 271, -256, 3360, -2660, -2310, -252, -94, 85
22919, -1008, 381, -480, 210, 280, 210, -240, -85, 76
22920, -909, 473, -350, -1050, 10290, 1470, -252, -91, 84
22921, -1238, 330, -565, -4690, 23730, 2030, -252, -90, 84
22922, -826, 302, -27, 1330, -18130, -1820, -237, -85, 88
22923, -911, 329, -571, -700, -3710, 0, -252, -100, 87
22924, -746, 258, -30, -700, 7560, 770, -241, -91, 88
22925, -1004, 366, -363, 1610, -6930, -1260, -250, -97, 81
22926, -817, 331, -295, 910, -4690, -700, -247, -91, 84
22927, -954, 267, -332, -280, 3990, 350, -238, -85, 91
22928, -925, 371, -297, 210, 700, -70, -240, -87, 73
22929, -881, 311, -254, 490, -5180, -560, -247, -97, 87
22930, -941, 315, -313, -350, -770, -140, -246, -85, 91
22931, -953, 292, -354, 280, -1820, -280, -255, -85, 85
22932, -857, 327, -252, -70, 3360, 210, -246, -88, 88
22933, -895, 322, -256, 980, -3010, -560, -252, -88, 94
22934, -961, 321, -328, -700, 3850, 420, -250, -79, 81
22935, -904, 316, -353, 70, -1820, -280, -241, -84, 85
22936, -907, 296, -249, -210, 1960, 140, -249, -84, 84
22937, -874, 351, -282, 420, -2590, -490, -238, -81, 79
22938, -951, 279, -265, -420, 1890, 210, -259, -81, 90
22939, -888, 318, -296, -140, 280, -70, -253, -93, 91
22940, -892, 350, -322, 70, 910, -70, -247, -91, 88
22941, -895, 301, -234, 210, -840, -210, -238, -81, 84
22942, -929, 340, -327, -210, 280, -70, -256, -84, 87
22943, -921, 262, -242, -420, 1050, 140, -249, -87, 85
22944, -900, 322, -324, 70, 1400, 70, -243, -76, 87
22945, -887, 350, -290, 350, -630, -280, -247, -99, 84
22946, -929, 291, -268, -210, 840, 0, -244, -85, 87
22947, -921, 315, -306, -210, 420, 0, -244, -93, 81
22948, -906, 280, -274, -70, -490, -70, -241, -90, 88
22949, -888, 313, -258, 70, 140, -140, -244, -88, 87
22950, -920, 319, -289, 70, -140, -210, -253, -85, 84
22951, -922, 291, -282, -210, 980, 0, -244, -88, 94
22952, -913, 300, -290, 70, -420, -70, -252, -97, 85
22953, -896, 315, -293, 70, 140, -70, -252, -90, 82
22954, -907, 318, -286, 0, 70, -140, -253, -87, 84
22955, -930, 291, -281, -210, 490, 0, -237, -81, 90
22956, -903, 307, -295, 0, 0, -70, -249, -87, 81
22957, -907, 300, -275, 140, 0, -70, -249, -93, 81
22958, -893, 332, -291, 70, 210, -70, -253, -88, 76
22959, -918, 315, -304, -140, 280, -70, -249, -87, 90
22960, -917, 286, -270, -140, 210, 70, -244, -93, 82
22961, -897, 325, -302, 70, -280, -140, -249, -90, 88
22962, -903, 303, -264, 70, 350, -70, -240, -91, 85
22963, -922, 289, -271, -70, 420, 0, -240, -84, 87
22964, -911, 316, -302, 0, 0, -70, -246, -93, 87
22965, -903, 297, -270, 0, 140, -70, -258, -84, 91
22966, -901, 327, -297, 70, 0, -140, -250, -93, 85
22967, -908, 299, -269, 0, 350, -70, -247, -84, 96
22968, -913, 293, -276, 0, 350, 0, -249, -90, 90
22969, -906, 316, -294, 140, -70, -70, -247, -82, 91
22970, -901, 306, -276, 70, 210, -70, -250, -84, 87
22971, -911, 318, -290, 70, 70, -140, -234, -87, 88
22972, -912, 301, -289, 70, 70, -70, -252, -93, 90
22973, -902, 307, -281, -70, 140, -70, -249, -75, 88
22974, -907, 313, -285, 70, 70, -70, -249, -91, 87
22975, -906, 310, -284, 0, 210, -140, -246, -97, 91
22976, -916, 305, -283, 0, 140, 0, -247, -93, 85
22977, -909, 306, -281, 0, 70, -70, -247, -96, 94
22978, -902, 314, -288, 70, 70, -70, -246, -91, 82
22979, -911, 306, -280, 0, 210, -70, -252, -90, 85
22980, -909, 311, -289, -70, 140, -70, -246, -87, 73
22981, -913, 302, -279, -70, 210, 0, -247, -81, 87
22982, -909, 304, -278, 0, 140, -70, -249, -91, 87
22983, -906, 315, -290, 0, 70, -140, -247, -81, 90
22984, -912, 301, -277, 0, 280, -70, -238, -93, 85
22985, -909, 313, -291, -70, 70, -70, -241, -90, 87
22986, -906, 315, -291, 0, 0, -140, -255, -84, 79
22987, -909, 304, -277, -70, 210, -70, -253, -85, 91
22988, -909, 314, -290, 70, 0, -70, -241, -85, 87
22989, -910, 302, -279, 0, 140, 0, -246, -85, 93
22990, -909, 314, -290, 70, 70, -70, -243, -87, 85
22991, -909, 314, -288, 0, 140, -70, -255, -87, 87
22992, -909, 304, -281, 0, 210, -70, -256, -87, 87
22993, -910, 311, -288, 0, 70, -70, -250, -82, 85
22994, -907, 306, -280, 0, 140, -70, -253, -79, 93
22995, -909, 311, -286, 0, 140, 0, -243, -91, 87
22996, -910, 310, -286, -70, 140, -70, -244, -93, 90
22997, -909, 306, -282, 0, 140, -70, -246, -85, 90
22998, -909, 309, -286, 70, 140, -70, -256, -93, 78
22999, -906, 308, -284, 70, 140, -70, -250, -79, 87
23000, -908, 308, -284, 0, 140, -140, -241, -81, 94
23001, -910, 307, -284, 0, 210, -140, -247, -94, 90
23002, -908, 309, -284, 0, 140, -70, -241, -82, 91
23003, -910, 308, -283, 0, 140, -70, -252, -82, 93
23004, -908, 310, -286, 140, 210, -70, -255, -88, 91
23005, -908, 310, -285, 0, 140, -70, -249, -87, 75
23006, -909, 307, -282, 0, 140, -70, -249, -81, 87
23007, -907, 310, -285, 70, 140, -70, -249, -88, 99
23008, -910, 306, -282, 0, 140, -70, -246, -85, 84
23009, -908, 310, -287, 0, 140, -70, -246, -82, 88
23010, -907, 311, -286, -70, 140, -70, -246, -88, 85
23011, -909, 307, -282, -70, 140, -70, -246, -88, 87
23012, -909, 310, -286, 0, 140, 0, -244, -88, 87
23013, -909, 306, -282, 0, 210, 0, -250, -102, 87
23014, -908, 307, -282, 0, 140, -70, -244, -87, 81
23015, -909, 310, -285, 0, 70, -70, -241, -93, 87
23016, -910, 307, -283, -70, 210, -70, -247, -91, 81
23017, -909, 311, -285, 0, 70, -70, -258, -87, 90
23018, -909, 307, -283, 0, 210, -70, -247, -85, 84
23019, -909, 307, -283, -70, 210, -70, -246, -85, 91
23020, -909, 309, -285, 70, 140, -70, -243, -84, 94
23021, -909, 307, -283, 0, 140, -70, -249, -87, 87
23022, -908, 310, -285, 0, 140, -70, -249, -79, 81
23023, -908, 308, -283, 0, 140, -70, -255, -97, 90
23024, -909, 307, -283, -70, 210, -70, -253, -84, 78
23025, -909, 308, -284, 0, 210, -70, -249, -90, 90
23026, -908, 307, -283, 0, 140, -70, -241, -82, 90
23027, -909, 308, -284, 0, 140, -70, -244, -94, 87
23028, -909, 308, -284, -70, 140, -70, -250, -82, 81
23029, -907, 309, -283, 0, 140, -70, -241, -82, 93
23030, -909, 309, -284, 70, 140, -70, -258, -85, 90
23031, -909, 309, -284, 0, 140, -70, -244, -85, 87
23032, -909, 308, -284, 0, 210, -70, -243, -81, 87
23033, -909, 309, -283, 0, 210, -70, -241, -91, 88
23034, -908, 308, -285, -70, 210, -70, -247, -84, 75
23035, -909, 309, -284, 70, 140, -140, -243, -85, 93
23036, -909, 308, -284, 0, 210, -70, -253, -91, 85
23037, -909, 308, -284, 0, 140, -70, -250, -88, 93
23038, -908, 308, -283, 0, 210, -70, -241, -85, 88
23039, -909, 309, -285, 0, 140, -140, -252, -96, 87
23040, -909, 308, -284, 0, 210, -70, -250, -81, 84
23041, -909, 309, -285, 70, 210, -70, -247, -91, 94
23042, -909, 309, -284, 0, 140, -70, -247, -88, 84
23043, -909, 308, -283, -70, 140, -70, -244, -93, 102
23044, -908, 309, -284, 0, 140, -70, -240, -84, 87
23045, -909, 309, -284, 0, 210, -140, -238, -79, 88
23046, -908, 309, -285, 0, 140, -70, -250, -85, 88
23047, -909, 309, -285, -70, 140, -70, -243, -87, 91
23048, -909, 309, -284, 0, 70, -70, -252, -79, 82
23049, -909, 310, -284, 70, 140, -140, -237, -94, 84
23050, -908, 309, -283, 0, 210, -140, -243, -84, 85
23051, -908, 309, -284, 0, 140, -70, -253, -85, 93
23052, -909, 309, -284, 0, 140, -70, -249, -85, 85
23053, -909, 308, -284, -70, 140, -70, -246, -81, 82
23054, -909, 309, -284, -70, 140, -70, -246, -93, 88
23055, -909, 308, -283, 0, 210, -70, -250, -85, 81
23056, -909, 309, -284, -70, 140, -70, -243, -87, 88
23057, -909, 309, -284, 0, 140, -70, -255, -90, 88
23058, -909, 309, -284, 70, 140, -70, -244, -88, 82
23059, -909, 309, -283, 70, 140, -70, -253, -81, 82
23060, -908, 309, -284, 0, 140, -140, -249, -88, 85
23061, -909, 308, -284, -70, 210, -70, -253, -81, 82
23062, -909, 308, -284, 0, 140, -70, -237, -96, 75
23063, -909, 308, -284, 70, 210, -70, -255, -88, 94
23064, -909, 309, -283, 0, 210, -70, -243, -88, 91
23065, -909, 308, -284, 0, 210, -70, -244, -90, 82
23066, -909, 309, -284, -70, 210, -70, -238, -88, 87
23067, -909, 308, -284, 70, 210, -70, -253, -88, 90
23068, -909, 308, -284, 0, 210, -70, -249, -85, 82
23069, -909, 309, -284, 0, 210, -70, -243, -87, 85
23070, -909, 309, -284, 70, 140, -70, -249, -87, 84
23071, -909, 308, -283, 70, 210, -70, -238, -79, 94
23072, -909, 308, -284, 0, 210, -70, -244, -88, 87
23073, -909, 309, -285, 70, 140, -70, -244, -88, 79
23074, -908, 308, -284, 0, 140, -70, -240, -93, 81
23075, -909, 308, -285, 0, 140, -140, -247, -97, 84
23076, -908, 308, -284, 0, 140, -70, -244, -87, 79
23077, -909, 309, -284, 70, 140, -70, -253, -94, 85
23078, -909, 308, -284, 70, 140, -70, -252, -87, 87
23079, -909, 309, -283, 0, 140, -70, -244, -93, 97
23080, -909, 309, -284, 70, 210, -70, -240, -88, 85
23081, -909, 309, -284, 0, 210, -70, -249, -85, 88
23082, -908, 308, -284, -70, 140, -70, -253, -88, 88
23083, -909, 309, -285, 0, 140, -70, -247, -88, 84
23084, -908, 309, -284, 0, 140, -70, -255, -96, 85
23085, -909, 309, -284, 0, 140, -70, -246, -81, 82
23086, -909, 309, -283, 70, 70, -70, -250, -87, 87
23087, -909, 309, -285, 0, 210, -70, -247, -82, 90
23088, -909, 308, -284, -70, 210, -70, -246, -88, 84
23089, -909, 309, -284, 0, 140, -70, -238, -85, 82
23090, -909, 309, -284, -70, 140, -70, -244, -93, 87
23091, -909, 308, -285, 0, 140, -70, -241, -87, 88
23092, -908, 309, -284, 0, 210, -70, -235, -94, 93
23093, -908, 308, -284, 0, 140, -70, -253, -87, 88
23094, -909, 308, -284, -70, 140, -70, -246, -84, 79
23095, -909, 308, -283, 0, 140, -70, -244, -91, 103
23096, -909, 308, -285, 70, 210, -70, -247, -81, 87
23097, -909, 308, -284, 0, 140, -70, -258, -79, 85
23098, -909, 309, -284, 0, 210, -140, -247, -85, 87
23099, -908, 309, -284, 0, 210, -70, -240, -87, 94
23100, -909, 308, -284, 0, 210, -70, -238, -84, 84
23101, -909, 308, -284, 0, 140, -70, -247, -79, 82
23102, -909, 309, -284, 0, 140, -70, -256, -81, 79
23103, -909, 309, -284, -70, 140, -70, -244, -82, 91
23104, -908, 308, -283, 0, 140, -70, -240, -85, 76
23105, -909, 308, -284, -70, 210, -70, -243, -87, 85
23106, -909, 309, -285, 0, 210, -70, -249, -88, 81
23107, -909, 309, -283, -70, 70, -70, -246, -82, 91
23108, -909, 309, -284, 0, 140, -70, -235, -87, 81
23109, -909, 309, -284, 0, 140, -70, -250, -93, 90
23110, -909, 309, -284, 0, 210, -70, -240, -85, 84
23111, -908, 308, -283, 0, 210, -70, -241, -79, 85
23112, -909, 309, -285, 0, 210, -70, -252, -93, 87
23113, -909, 308, -283, 0, 140, -70, -243, -81, 81
23114, -908, 308, -284, -70, 140, -70, -246, -91, 84
23115, -910, 309, -284, 70, 210, -70, -241, -84, 85
23116, -908, 309, -283, 0, 140, -70, -246, -87, 91
23117, -908, 308, -285, 0, 210, -70, -246, -84, 84
23118, -909, 309, -284, 0, 210, -70, -244, -82, 87
23119, -909, 309, -284, 0, 210, -70, -246, -82, 90
23120, -908, 308, -284, 0, 140, -70, -241, -90, 90
23121, -908, 308, -284, 0, 140, -70, -241, -88, 87
23122, -909, 309, -284, 0, 140, -70, -243, -85, 75
23123, -908, 309, -283, 0, 140, -70, -244, -91, 96
23124, -909, 309, -284, 0, 140, -70, -246, -87, 93
23125, -909, 309, -283, 0, 140, -70, -247, -90, 82
23126, -909, 309, -284, 0, 140, -70, -240, -87, 85
23127, -909, 309, -284, 70, 210, -70, -244, -96, 90
23128, -909, 308, -284, 70, 140, -70, -246, -85, 93
23129, -909, 308, -285, 70, 140, -70, -243, -94, 82
23130, -910, 309, -284, 0, 140, -70, -246, -81, 94
23131, -908, 308, -284, -70, 140, -70, -244, -88, 79
23132, -909, 308, -284, 0, 210, -70, -253, -93, 82
23133, -909, 308, -283, -70, 210, -70, -244, -93, 78
23134, -909, 308, -283, 0, 210, -70, -249, -88, 94
23135, -909, 309, -283, 0, 210, -70, -259, -87, 84
23136, -909, 308, -283, 70, 140, -70, -246, -90, 90
23137, -909, 308, -284, -70, 210, 0, -238, -99, 88
23138, -909, 309, -284, 0, 210, -140, -246, -93, 91
23139, -909, 309, -284, -70, 140, -70, -249, -90, 87
23140, -909, 308, -284, 0, 140, -70, -250, -84, 91
23141, -909, 308, -283, 70, 140, -70, -247, -94, 70
23142, -909, 309, -284, 0, 210, -70, -241, -87, 84
23143, -909, 308, -284, 0, 210, -70, -249, -96, 88
23144, -908, 308, -284, 0, 140, -70, -252, -84, 90
23145, -909, 308, -284, 0, 140, -70, -247, -87, 82
23146, -909, 308, -283, 0, 210, -70, -256, -85, 85
23147, -909, 309, -284, 0, 210, -70, -240, -96, 87
23148, -908, 308, -284, 0, 280, -70, -247, -91, 85
23149, -908, 308, -284, 0, 140, -70, -241, -85, 78
23150, -908, 309, -284, 0, 140, -70, -240, -79, 91
23151, -909, 309, -283, 0, 140, -70, -252, -88, 78
23152, -909, 308, -283, 0, 140, -70, -247, -88, 93
23153, -908, 309, -283, 0, 140, -70, -240, -87, 87
23154, -909, 309, -284, 0, 140, -70, -244, -90, 88
23155, -909, 309, -284, 0, 140, -70, -244, -88, 82
23156, -909, 308, -284, 0, 140, -70, -247, -84, 87
23157, -909, 309, -284, 70, 210, -70, -240, -85, 87
23158, -909, 309, -283, 70, 210, -70, -243, -85, 84
23159, -908, 308, -284, 0, 140, -70, -249, -91, 90
23160, -909, 309, -284, 0, 70, -70, -247, -78, 85
23161, -909, 308, -283, -70, 210, -70, -244, -85, 85
23162, -909, 309, -284, 0, 140, -140, -244, -76, 88
23163, -909, 308, -284, 0, 140, 0, -250, -88, 90
23164, -909, 308, -284, 0, 210, -70, -243, -82, 79
23165, -909, 308, -283, 0, 210, -70, -243, -73, 82
23166, -908, 309, -283, 0, 140, -70, -241, -87, 93
23167, -909, 309, -284, 0, 210, 0, -247, -93, 84
23168, -909, 308, -284, 0, 210, 0, -244, -82, 84
23169, -909, 308, -284, 0, 140, -70, -243, -79, 90
23170, -909, 309, -284, 0, 140, -70, -249, -88, 93
23171, -909, 309, -284, 70, 70, -70, -262, -87, 88
23172, -909, 308, -284, 0, 210, -70, -247, -90, 82
23173, -909, 309, -284, 70, 210, -70, -253, -88, 87
23174, -910, 308, -284, 70, 140, -70, -250, -99, 90
23175, -909, 309, -284, 0, 210, -70, -244, -85, 85
23176, -908, 309, -284, 0, 140, -70, -247, -85, 88
23177, -909, 309, -284, 0, 210, -70, -255, -82, 96
23178, -908, 308, -283, 0, 140, -140, -258, -87, 82
23179, -909, 308, -284, 0, 70, -70, -256, -82, 88
23180, -909, 308, -283, 70, 210, -70, -244, -91, 76
23181, -910, 308, -283, 0, 140, -70, -253, -82, 85
23182, -908, 308, -284, 0, 140, -70, -244, -85, 82
23183, -909, 309, -284, -70, 140, -70, -238, -76, 88
23184, -908, 308, -284, 0, 140, -70, -252, -93, 79
23185, -909, 309, -283, 0, 210, -70, -244, -84, 82
23186, -909, 308, -284, 0, 140, -70, -249, -97, 82
23187, -909, 309, -284, 0, 210, -70, -244, -90, 84
23188, -909, 308, -285, 0, 210, -70, -244, -93, 91
23189, -908, 309, -284, 70, 140, -70, -238, -93, 79
23190, -909, 309, -284, 70, 140, -70, -249, -97, 88
23191, -909, 309, -284, 0, 140, -70, -253, -85, 94
23192, -908, 308, -283, 0, 140, -70, -240, -91, 87
23193, -909, 308, -283, 0, 210, -70, -246, -76, 88
23194, -909, 308, -284, 0, 140, -70, -244, -88, 84
23195, -908, 309, -284, 0, 140, -140, -246, -88, 93
23196, -909, 308, -284, 0, 140, -70, -246, -90, 85
23197, -908, 308, -283, 0, 140, -70, -244, -81, 87
23198, -909, 309, -284, -70, 140, -70, -247, -97, 93
23199, -909, 309, -284, 0, 210, -70, -244, -81, 93
23200, -909, 309, -284, 0, 140, -70, -244, -88, 85
23201, -909, 309, -284, 0, 210, -70, -249, -85, 88
23202, -910, 308, -284, 0, 210, -70, -250, -90, 82
23203, -909, 308, -283, -70, 140, -70, -250, -82, 87
23204, -909, 308, -284, 0, 140, -70, -246, -85, 88
23205, -909, 309, -284, 0, 140, -70, -253, -75, 81
23206, -908, 308, -284, 0, 140, -70, -247, -85, 87
23207, -909, 309, -285, -70, 210, -70, -244, -85, 87
23208, -909, 308, -284, 0, 210, -70, -249, -88, 85
23209, -909, 309, -284, 0, 210, -70, -247, -87, 84
23210, -909, 308, -284, 0, 140, -70, -243, -87, 81
23211, -909, 309, -285, 0, 140, -70, -255, -78, 87
23212, -909, 308, -284, 0, 140, -70, -249, -90, 87
23213, -909, 309, -284, 0, 140, 0, -247, -90, 88
23214, -909, 308, -284, 0, 210, -70, -240, -96, 88
23215, -909, 309, -284, 70, 140, -140, -247, -90, 87
23216, -909, 309, -283, 0, 140, -70, -246, -91, 93
23217, -908, 309, -284, 0, 140, -70, -250, -87, 87
23218, -909, 308, -284, 0, 140, -70, -243, -88, 81
23219, -909, 308, -284, -70, 140, -70, -247, -94, 85
23220, -909, 308, -284, 0, 140, -70, -235, -87, 79
23221, -908, 309, -283, -70, 140, -140, -238, -87, 90
23222, -909, 308, -284, 0, 140, -140, -241, -93, 87
23223, -909, 308, -283, 0, 210, -70, -241, -81, 82
23224, -909, 309, -284, 0, 210, -70, -247, -94, 70
23225, -909, 308, -284, 0, 210, -70, -247, -85, 91
23226, -908, 309, -284, 0, 140, 0, -244, -90, 85
23227, -909, 309, -284, 0, 140, -140, -249, -91, 79
23228, -908, 308, -283, 0, 210, -140, -237, -91, 84
23229, -909, 308, -282, 0, 210, -70, -244, -88, 75
23230, -909, 308, -283, 0, 140, -70, -243, -94, 87
23231, -909, 309, -283, 0, 140, -70, -232, -91, 96
23232, -909, 309, -284, 0, 140, -70, -241, -82, 90
23233, -909, 308, -284, 70, 210, -70, -243, -84, 87
23234, -908, 309, -284, 0, 210, -70, -244, -87, 84
23235, -909, 309, -284, 0, 140, -70, -250, -84, 87
23236, -909, 308, -284, 0, 140, -140, -243, -87, 85
23237, -909, 308, -283, 0, 140, -70, -253, -87, 97
23238, -909, 308, -283, 70, 140, -70, -246, -93, 78
23239, -909, 309, -284, 0, 210, -70, -253, -97, 75
23240, -909, 308, -284, 0, 210, -70, -250, -88, 84
23241, -908, 308, -284, 0, 210, -70, -246, -93, 93
23242, -909, 309, -284, 0, 140, -70, -246, -85, 82
23243, -909, 309, -284, 0, 210, -140, -237, -94, 96
23244, -909, 309, -284, 70, 140, -70, -246, -88, 90
23245, -908, 309, -283, 0, 210, -70, -235, -88, 87
23246, -909, 309, -283, 70, 210, -140, -247, -84, 81
23247, -909, 309, -283, 0, 210, -70, -249, -96, 87
23248, -909, 309, -284, 0, 70, -70, -253, -79, 87
23249, -909, 308, -285, 0, 140, -70, -249, -94, 78
23250, -909, 308, -283, 0, 140, -70, -237, -93, 94
23251, -909, 309, -283, 0, 140, -70, -246, -90, 84
23252, -909, 308, -284, 0, 210, -70, -247, -91, 79
23253, -909, 309, -284, 0, 210, -70, -246, -82, 96
23254, -909, 309, -284, 0, 140, -70, -238, -79, 85
23255, -909, 309, -285, 70, 140, -70, -247, -82, 87
23256, -909, 308, -283, 0, 140, -70, -244, -94, 87
23257, -909, 309, -284, 70, 210, -140, -247, -85, 82
23258, -910, 309, -284, 0, 280, -70, -244, -81, 79
23259, -909, 309, -284, 0, 140, -70, -244, -93, 79
23260, -910, 309, -284, 0, 210, -70, -253, -93, 82
23261, -909, 309, -284, 70, 140, -70, -244, -96, 82
23262, -909, 309, -283, 0, 210, -140, -241, -82, 90
23263, -908, 308, -283, 0, 140, -70, -255, -103, 87
23264, -909, 309, -284, 70, 210, -70, -241, -91, 85
23265, -909, 308, -284, 0, 140, -70, -241, -90, 82
23266, -909, 308, -283, 0, 210, -70, -250, -76, 91
23267, -908, 309, -284, 0, 140, -70, -247, -93, 90
23268, -909, 308, -283, 0, 140, -70, -249, -96, 84
23269, -909, 309, -283, 0, 210, -70, -246, -79, 87
23270, -909, 309, -283, 0, 210, -70, -240, -94, 85
23271, -909, 309, -284, 0, 140, -70, -247, -94, 96
23272, -910, 308, -284, 0, 140, -70, -250, -87, 85
23273, -909, 309, -283, 0, 140, -70, -244, -88, 88
23274, -909, 308, -283, 0, 210, -70, -250, -88, 90
23275, -909, 308, -283, -70, 140, -140, -244, -88, 90
23276, -909, 308, -282, 70, 210, -140, -238, -88, 93
23277, -908, 308, -283, 70, 210, 0, -241, -87, 87
23278, -909, 308, -284, 70, 210, -70, -249, -93, 85
23279, -908, 307, -283, 0, 210, -70, -246, -85, 91
23280, -909, 309, -284, 0, 140, -70, -246, -88, 84
23281, -909, 308, -283, 0, 140, -70, -252, -84, 88
23282, -910, 309, -284, -70, 210, -70, -250, -91, 90
23283, -909, 308, -283, 0, 140, -70, -255, -93, 93
23284, -909, 309, -284, -70, 140, -70, -243, -81, 84
23285, -909, 308, -284, 0, 140, -70, -250, -94, 84
23286, -909, 309, -284, -70, 140, -70, -247, -90, 88
23287, -909, 308, -284, -70, 210, 0, -235, -85, 90
23288, -909, 310, -285, 0, 140, -70, -249, -94, 82
23289, -909, 309, -284, 0, 210, -70, -244, -84, 84
23290, -909, 309, -284, 0, 210, -70, -246, -87, 79
23291, -909, 309, -283, 0, 210, -70, -249, -88, 85
23292, -909, 309, -284, 70, 210, -70, -243, -85, 85
23293, -909, 308, -284, -70, 140, -70, -247, -85, 81
23294, -909, 308, -283, 70, 140, -70, -240, -93, 85
23295, -908, 308, -284, 70, 210, -70, -250, -84, 90
23296, -908, 309, -284, -70, 140, -70, -249, -93, 84
23297, -909, 308, -284, 70, 210, -70, -246, -88, 91
23298, -909, 309, -283, 0, 140, -70, -241, -94, 85
23299, -909, 309, -283, 70, 140, -140, -247, -91, 81
23300, -909, 308, -284, 0, 210, -70, -247, -85, 82
23301, -909, 308, -284, 0, 140, -70, -246, -91, 85
23302, -909, 309, -284, 0, 140, -70, -244, -93, 85
23303, -908, 308, -284, 70, 140, -70, -247, -84, 82
23304, -908, 309, -284, 0, 210, -70, -252, -84, 87
23305, -909, 308, -284, -70, 70, -70, -250, -88, 88
23306, -909, 309, -283, 0, 140, -70, -249, -84, 81
23307, -909, 309, -284, 0, 140, -70, -252, -97, 88
23308, -909, 309, -284, -70, 140, -70, -246, -84, 81
23309, -909, 309, -285, 0, 140, -70, -241, -82, 87
23310, -909, 309, -284, -70, 140, -70, -247, -91, 87
23311, -909, 308, -284, 0, 210, -70, -247, -87, 88
23312, -909, 308, -284, 0, 140, -70, -244, -87, 85
23313, -909, 309, -284, -70, 210, -70, -250, -88, 84
23314, -909, 308, -283, 0, 210, -70, -246, -88, 87
23315, -910, 309, -284, -70, 140, -140, -244, -79, 88
23316, -909, 308, -284, 0, 210, -70, -250, -85, 84
23317, -909, 309, -284, 0, 140, -140, -237, -90, 84
23318, -908, 308, -284, 0, 210, -140, -249, -81, 87
23319, -910, 308, -283, -70, 210, -70, -247, -85, 87
23320, -909, 309, -285, 0, 210, -70, -243, -88, 87
23321, -909, 308, -284, 0, 140, -70, -246, -90, 84
23322, -909, 309, -284, 0, 140, -70, -256, -94, 84
23323, -909, 309, -284, 70, 210, -70, -246, -82, 93
23324, -909, 309, -284, 0, 140, -70, -247, -96, 76
23325, -909, 309, -285, 0, 140, -70, -249, -81, 88
23326, -909, 308, -283, 0, 140, -70, -240, -87, 85
23327, -909, 309, -284, -70, 140, -70, -243, -93, 81
23328, -909, 309, -284, -70, 210, -70, -247, -85, 87
23329, -909, 308, -284, 70, 140, -70, -246, -85, 90
23330, -909, 308, -284, 0, 140, -70, -241, -100, 87
23331, -909, 309, -284, 0, 140, -70, -250, -84, 90
23332, -909, 309, -283, 0, 210, -140, -243, -88, 88
23333, -909, 308, -284, 0, 140, -140, -244, -91, 79
23334, -909, 309, -283, 0, 140, -70, -244, -87, 81
23335, -908, 309, -283, 0, 140, -70, -252, -94, 88
23336, -909, 309, -283, 0, 140, -70, -246, -82, 85
23337, -909, 309, -283, -70, 210, -70, -243, -84, 90
23338, -909, 308, -284, 0, 210, 0, -253, -90, 87
23339, -908, 308, -283, 0, 140, -70, -241, -96, 94
23340, -909, 309, -284, 0, 140, -70, -240, -78, 85
23341, -909, 308, -284, 70, 140, -140, -246, -96, 85
23342, -909, 308, -284, 70, 210, -70, -244, -79, 91
23343, -909, 309, -283, 0, 210, -70, -241, -87, 90
23344, -909, 308, -283, 0, 140, -70, -241, -73, 87
23345, -909, 308, -284, -70, 210, -70, -241, -91, 91
23346, -909, 309, -284, 0, 210, -70, -244, -99, 90
23347, -908, 309, -284, 0, 210, -70, -250, -85, 82
23348, -909, 309, -284, 70, 140, -70, -247, -90, 93
23349, -909, 309, -285, -70, 210, -70, -235, -100, 90
23350, -909, 309, -284, 0, 210, -70, -250, -85, 84
23351, -909, 309, -284, -70, 140, -70, -246, -90, 90
23352, -909, 309, -283, 70, 210, -70, -247, -85, 82
23353, -909, 308, -283, 0, 140, -140, -237, -88, 93
23354, -909, 309, -283, 0, 140, -70, -244, -81, 84
23355, -909, 308, -283, 0, 140, -70, -246, -91, 90
23356, -909, 308, -284, 0, 140, -70, -249, -79, 85
23357, -909, 309, -283, 0, 280, -70, -249, -88, 91
23358, -909, 309, -283, 0, 140, -70, -249, -82, 91
23359, -909, 308, -283, -70, 140, -70, -238, -88, 85
23360, -910, 308, -285, 0, 140, -70, -252, -84, 85
23361, -909, 309, -284, 0, 210, -70, -247, -90, 85
23362, -909, 309, -283, 0, 140, -70, -256, -87, 79
23363, -908, 308, -284, 0, 210, -70, -258, -85, 96
23364, -909, 308, -283, -70, 140, -70, -252, -79, 90
23365, -909, 309, -283, 0, 140, -70, -235, -88, 91
23366, -909, 308, -285, 0, 210, -70, -240, -87, 87
23367, -909, 309, -283, 0, 210, -140, -241, -85, 84
23368, -909, 309, -284, 140, 140, -70, -246, -87, 85
23369, -909, 309, -284, 0, 140, -140, -240, -94, 88
23370, -909, 308, -284, 0, 140, -70, -250, -88, 78
23371, -909, 308, -284, -70, 140, -70, -250, -81, 85
23372, -909, 309, -284, 0, 210, -140, -250, -85, 84
23373, -909, 309, -284, 0, 140, -140, -252, -76, 88
23374, -909, 308, -283, 0, 140, -70, -244, -81, 78
23375, -909, 308, -284, 0, 140, -140, -241, -93, 73
23376, -909, 308, -283, -70, 210, -70, -250, -90, 93
23377, -909, 308, -283, 0, 140, -70, -246, -88, 84
23378, -909, 309, -283, 0, 140, -70, -247, -85, 88
23379, -909, 308, -284, -70, 210, -70, -250, -94, 85
23380, -909, 308, -283, 0, 140, -70, -256, -93, 87
23381, -909, 308, -284, 0, 210, -70, -250, -91, 88
23382, -909, 309, -284, 0, 210, -70, -243, -91, 87
23383, -910, 308, -284, 0, 210, -70, -253, -88, 96
23384, -910, 308, -284, 0, 140, -70, -241, -76, 76
23385, -908, 308, -283, 0, 70, -70, -252, -85, 90
23386, -908, 310, -284, 0, 140, -70, -244, -94, 88
23387, -909, 308, -284, 0, 140, -70, -255, -82, 88
23388, -909, 308, -283, 0, 140, -140, -247, -91, 76
23389, -909, 309, -283, 0, 210, -70, -252, -88, 90
23390, -908, 309, -283, 0, 140, -70, -249, -90, 90
23391, -909, 308, -285, -70, 140, -70, -250, -79, 90
23392, -909, 308, -284, 0, 140, -70, -243, -87, 88
23393, -909, 309, -284, 0, 140, -70, -249, -88, 94
23394, -909, 308, -284, 0, 140, -70, -238, -90, 87
23395, -909, 309, -284, 70, 210, -70, -244, -94, 87
23396, -909, 309, -283, -70, 140, -70, -253, -87, 87
23397, -908, 308, -284, -70, 210, -70, -243, -88, 85
23398, -908, 309, -285, 0, 140, -70, -246, -88, 90
23399, -909, 308, -285, 0, 140, -70, -249, -88, 87
23400, -909, 309, -284, 0, 140, -70, -243, -88, 84
23401, -909, 308, -284, 0, 210, -70, -246, -87, 85
23402, -909, 308, -283, 70, 210, -70, -252, -81, 96
23403, -909, 309, -283, 0, 210, -70, -250, -85, 81
23404, -908, 308, -283, 0, 140, -140, -250, -84, 85
23405, -909, 309, -284, -70, 140, -70, -252, -84, 81
23406, -909, 308, -283, 0, 210, -140, -243, -87, 87
23407, -909, 308, -283, 0, 210, -70, -240, -79, 85
23408, -909, 309, -285, 0, 210, -70, -252, -91, 94
23409, -910, 309, -284, 0, 140, -70, -256, -88, 82
23410, -909, 308, -284, 0, 210, -70, -244, -82, 94
23411, -909, 310, -285, 0, 210, -70, -246, -75, 87
23412, -909, 309, -284, 0, 140, -70, -246, -97, 87
23413, -909, 309, -283, 0, 210, -70, -250, -81, 93
23414, -909, 308, -284, 0, 140, -70, -246, -91, 100
23415, -908, 308, -284, 0, 140, -70, -243, -85, 91
23416, -909, 309, -282, 0, 140, -70, -249, -96, 87
23417, -909, 309, -283, 0, 140, -70, -243, -79, 88
23418, -909, 309, -284, 0, 140, -70, -244, -88, 85
23419, -909, 310, -284, 0, 140, -70, -246, -93, 84
23420, -909, 309, -284, 0, 140, -70, -249, -87, 85
23421, -909, 308, -284, 70, 70, -70, -246, -88, 87
23422, -909, 309, -283, 70, 140, 0, -246, -87, 87
23423, -909, 309, -283, 0, 140, -70, -255, -84, 85
23424, -909, 309, -284, 0, 140, -70, -249, -96, 90
23425, -908, 308, -284, 0, 210, -70, -244, -94, 88
23426, -909, 308, -283, 0, 140, -70, -243, -94, 90
23427, -909, 308, -284, 70, 140, -70, -243, -79, 93
23428, -909, 309, -284, -70, 140, -70, -246, -99, 85
23429, -909, 308, -283, 0, 140, -70, -247, -87, 94
23430, -909, 308, -284, 70, 140, -70, -241, -85, 79
23431, -909, 309, -284, -70, 210, -70, -241, -81, 102
23432, -908, 308, -283, 0, 210, -70, -252, -88, 82
23433, -909, 308, -284, 0, 140, -70, -256, -82, 94
23434, -909, 308, -283, 0, 140, -70, -247, -85, 76
23435, -909, 308, -284, -70, 140, -70, -247, -90, 90
23436, -909, 309, -283, 0, 280, -70, -237, -81, 82
23437, -909, 308, -283, 70, 140, -70, -244, -78, 93
23438, -909, 309, -284, 0, 210, -70, -244, -88, 90
23439, -909, 309, -284, 0, 140, -70, -252, -85, 87
23440, -909, 309, -284, 70, 210, -70, -249, -90, 84
23441, -909, 309, -283, 0, 210, -70, -243, -88, 91
23442, -909, 309, -284, 70, 210, -70, -252, -90, 84
23443, -909, 308, -284, 0, 210, -70, -249, -90, 87
23444, -909, 309, -283, -70, 210, -70, -243, -84, 84
23445, -909, 309, -285, 0, 140, -140, -249, -91, 91
23446, -909, 308, -283, 0, 140, -70, -246, -79, 90
23447, -909, 308, -283, 0, 140, -70, -249, -87, 84
23448, -908, 308, -284, 0, 140, -140, -252, -84, 82
23449, -909, 309, -284, 0, 140, -70, -250, -87, 90
23450, -909, 309, -284, 0, 210, -70, -246, -84, 82
23451, -909, 309, -284, -70, 210, -70, -243, -82, 85
23452, -909, 308, -284, 0, 140, -70, -243, -88, 72
23453, -909, 308, -284, 0, 210, -70, -249, -85, 85
23454, -909, 308, -284, -70, 210, -70, -237, -90, 94
23455, -908, 309, -284, 0, 210, -70, -244, -91, 91
23456, -909, 309, -284, 0, 210, -70, -241, -88, 96
23457, -909, 308, -283, 70, 140, -70, -256, -90, 94
23458, -909, 308, -283, 0, 210, -70, -252, -88, 90
23459, -909, 309, -283, 0, 210, -70, -240, -85, 85
23460, -909, 309, -283, 0, 140, -70, -244, -79, 90
23461, -909, 309, -284, -70, 140, -70, -235, -85, 90
23462, -909, 308, -283, 0, 140, -70, -247, -84, 88
23463, -909, 308, -284, 0, 210, -70, -243, -88, 85
23464, -909, 308, -283, 70, 210, -70, -252, -84, 88
23465, -910, 309, -284, 0, 210, -70, -250, -87, 85
23466, -909, 308, -284, 0, 140, 0, -246, -79, 81
23467, -909, 309, -284, -70, 140, -140, -247, -102, 88
23468, -908, 309, -284, 0, 140, -140, -249, -93, 84
23469, -908, 309, -284, 0, 210, -70, -238, -93, 90
23470, -909, 308, -283, 0, 140, -70, -247, -82, 96
23471, -909, 308, -285, 0, 140, -140, -252, -87, 82
23472, -909, 309, -284, 0, 140, -70, -250, -82, 85
23473, -909, 309, -284, 0, 140, -70, -258, -85, 73
23474, -909, 308, -283, 0, 140, -70, -235, -76, 93
23475, -909, 309, -283, 0, 140, 0, -243, -93, 87
23476, -909, 309, -284, 0, 210, -70, -244, -82, 88
23477, -909, 309, -283, 0, 210, -70, -253, -79, 85
23478, -909, 308, -284, -70, 140, -70, -247, -84, 84
23479, -909, 309, -284, 0, 140, -70, -247, -79, 84
23480, -909, 308, -284, 0, 210, -70, -255, -91, 94
23481, -909, 309, -283, 0, 140, -70, -240, -78, 78
23482, -909, 308, -284, 0, 210, -140, -246, -84, 76
23483, -909, 309, -284, 0, 140, -70, -241, -96, 87
23484, -909, 308, -283, 0, 140, -70, -243, -88, 93
23485, -909, 308, -284, 0, 140, -140, -249, -85, 82
23486, -909, 308, -284, 0, 140, -70, -247, -87, 94
23487, -909, 308, -283, 70, 140, -70, -244, -88, 88
23488, -909, 308, -283, 0, 140, -70, -252, -84, 85
23489, -909, 308, -284, 70, 140, -70, -243, -91, 82
23490, -909, 309, -284, 0, 210, -70, -243, -87, 84
23491, -908, 308, -284, 70, 140, -70, -243, -85, 78
23492, -909, 309, -284, 0, 210, -140, -246, -91, 97
23493, -909, 309, -284, 0, 140, -70, -244, -81, 93
23494, -909, 308, -284, -70, 210, -70, -246, -87, 87
23495, -909, 309, -284, 70, 210, -70, -241, -81, 91
23496, -909, 309, -284, 70, 140, -70, -252, -84, 87
23497, -909, 308, -284, 0, 140, -70, -250, -84, 100
23498, -909, 309, -284, 0, 140, -70, -241, -85, 87
23499, -909, 309, -283, 70, 140, -70, -244, -87, 96
23500, -909, 308, -283, 0, 140, -70, -237, -88, 81
23501, -909, 308, -284, 70, 140, -70, -249, -91, 87
23502, -909, 308, -284, 70, 210, -70, -250, -87, 84
23503, -909, 308, -284, 0, 210, -70, -253, -78, 88
23504, -910, 309, -284, 0, 210, -70, -246, -85, 84
23505, -909, 309, -284, 0, 140, -70, -246, -82, 85
23506, -908, 309, -284, 0, 210, -70, -250, -84, 87
23507, -909, 309, -282, 70, 0, -70, -246, -73, 82
23508, -907, 308, -282, 0, 210, -70, -243, -93, 78
23509, -912, 309, -286, 0, 280, -140, -238, -88, 91
23510, -912, 308, -285, 0, 210, -70, -246, -93, 81
23511, -908, 307, -283, 0, 70, -70, -253, -84, 94
23512, -907, 309, -283, 0, 70, -140, -243, -91, 87
23513, -908, 306, -284, -70, 140, -70, -255, -88, 91
23514, -909, 308, -284, 70, 210, -70, -241, -88, 88
23515, -908, 309, -284, -70, 210, -70, -244, -91, 91
23516, -909, 308, -284, -70, 210, -70, -249, -97, 84
23517, -908, 308, -283, 0, 140, -70, -249, -88, 84
23518, -908, 309, -282, -140, 210, -70, -243, -88, 79
23519, -909, 308, -284, 0, 140, -70, -252, -85, 96
23520, -909, 309, -284, 0, 140, -70, -247, -88, 82
23521, -910, 308, -285, 0, 140, -70, -244, -85, 79
23522, -908, 308, -283, 0, 210, -70, -249, -93, 73
23523, -909, 308, -283, -70, 140, -70, -249, -84, 84
23524, -908, 308, -283, 0, 210, -70, -252, -96, 90
23525, -908, 308, -283, 0, 210, -70, -246, -85, 84
23526, -909, 308, -284, 0, 210, -140, -247, -88, 79
23527, -909, 309, -284, 70, 140, -70, -243, -82, 87
23528, -908, 309, -283, 70, 140, -70, -246, -90, 85
23529, -909, 309, -284, 0, 140, -140, -243, -84, 88
23530, -909, 308, -283, 0, 140, -140, -241, -88, 82
23531, -909, 309, -284, 70, 210, -140, -246, -97, 79
23532, -909, 309, -283, 70, 210, -70, -243, -88, 76
23533, -909, 308, -284, 0, 210, -70, -243, -87, 82
23534, -909, 309, -283, 0, 140, -70, -250, -88, 90
23535, -909, 308, -283, 0, 210, -70, -246, -88, 84
23536, -909, 309, -284, -70, 210, -70, -244, -93, 87
23537, -909, 309, -284, 0, 210, -70, -255, -84, 85
23538, -909, 308, -284, 0, 140, -70, -243, -82, 79
23539, -909, 308, -283, 0, 140, -70, -246, -84, 91
23540, -909, 308, -284, 0, 140, -70, -250, -87, 90
23541, -909, 309, -285, 0, 210, -70, -238, -97, 82
23542, -909, 309, -283, -70, 140, -70, -247, -87, 82
23543, -909, 308, -283, 70, 210, -70, -244, -84, 88
23544, -909, 308, -284, 70, 210, -70, -246, -88, 84
23545, -909, 308, -283, 0, 140, -70, -249, -87, 93
23546, -909, 309, -284, 0, 140, 0, -234, -90, 81
23547, -909, 309, -283, 0, 140, -140, -240, -97, 99
23548, -909, 308, -284, 0, 210, -70, -247, -97, 88
23549, -909, 308, -284, 0, 140, -70, -250, -93, 81
23550, -909, 308, -283, 0, 210, -70, -252, -88, 85
23551, -909, 308, -284, 0, 210, -70, -243, -97, 81
23552, -909, 308, -284, 0, 140, -70, -238, -88, 97
23553, -910, 308, -284, 70, 210, -140, -244, -91, 88
23554, -909, 309, -284, 0, 210, -70, -244, -94, 90
23555, -909, 309, -282, 0, 140, -70, -253, -90, 84
23556, -909, 309, -284, 0, 140, -70, -250, -91, 90
23557, -909, 309, -284, -70, 210, -70, -246, -82, 82
23558, -908, 308, -284, 0, 210, -70, -244, -84, 82
23559, -909, 309, -283, 0, 140, -70, -246, -88, 87
23560, -910, 308, -283, 0, 210, -70, -247, -82, 78
23561, -909, 308, -284, 0, 140, -70, -244, -82, 69
23562, -908, 308, -283, 0, 70, -70, -246, -85, 78
23563, -909, 308, -284, 0, 140, -70, -237, -84, 88
23564, -909, 308, -284, 0, 210, -70, -255, -87, 93
23565, -909, 309, -284, -70, 210, -70, -243, -90, 87
23566, -909, 308, -284, 70, 140, -70, -238, -85, 93
23567, -909, 308, -284, 70, 140, -70, -253, -79, 85
23568, -909, 309, -284, 70, 140, -70, -246, -84, 88
23569, -909, 309, -284, 70, 140, -70, -250, -90, 87
23570, -910, 308, -284, -70, 140, -70, -246, -82, 81
23571, -909, 308, -284, 70, 210, -70, -243, -90, 82
23572, -909, 309, -284, 0, 210, -70, -247, -87, 84
23573, -909, 309, -284, 0, 210, -70, -237, -90, 82
23574, -909, 308, -283, -70, 210, -70, -253, -88, 85
23575, -909, 309, -284, -70, 140, -70, -252, -90, 81
23576, -909, 308, -284, -70, 210, -70, -244, -82, 91
23577, -908, 309, -284, 0, 140, -140, -252, -90, 99
23578, -909, 308, -284, -70, 140, -70, -249, -91, 87
23579, -909, 308, -284, 0, 140, -70, -240, -90, 88
23580, -908, 308, -284, 0, 210, -70, -246, -81, 88
23581, -909, 309, -284, 0, 210, -70, -246, -87, 85
23582, -907, 307, -282, 0, 70, -70, -252, -88, 84
23583, -904, 306, -283, 70, 280, -70, -244, -87, 84
23584, -920, 311, -288, 0, 560, -70, -252, -87, 87
23585, -905, 307, -280, 140, -210, -70, -247, -93, 91
23586, -908, 311, -287, -70, 70, -140, -246, -78, 85
23587, -906, 304, -278, 0, -70, -140, -247, -81, 88
23588, -908, 308, -285, 70, 70, -70, -252, -87, 84
23589, -910, 312, -285, 70, 350, -70, -246, -85, 81
23590, -907, 308, -283, -70, 280, -70, -255, -81, 85
23591, -909, 309, -285, 70, 0, -140, -249, -87, 78
23592, -907, 308, -283, 0, 210, -140, -250, -91, 81
23593, -909, 308, -281, -70, 210, -70, -244, -85, 96
23594, -909, 309, -284, 70, 140, -70, -247, -91, 90
23595, -909, 308, -285, 0, 140, -140, -249, -88, 90
23596, -908, 309, -283, 0, 70, -70, -252, -90, 93
23597, -908, 308, -283, 0, 210, -70, -253, -90, 84
23598, -909, 308, -283, 0, 210, -70, -252, -87, 91
23599, -908, 308, -284, 0, 140, -70, -244, -88, 85
23600, -909, 309, -283, 0, 280, -70, -253, -88, 87
23601, -910, 308, -283, 0, 140, -70, -250, -85, 84
23602, -908, 308, -283, 0, 210, -70, -243, -88, 90
23603, -908, 309, -282, 0, 140, -70, -240, -84, 84
23604, -909, 309, -283, 0, 140, -70, -243, -90, 93
23605, -909, 309, -283, 0, 210, -70, -243, -96, 88
23606, -908, 308, -283, 70, 280, -70, -253, -90, 90
23607, -909, 309, -283, -70, 140, -70, -247, -84, 85
23608, -909, 308, -284, 0, 210, -70, -235, -85, 84
23609, -909, 308, -283, 0, 210, -70, -253, -91, 90
23610, -908, 308, -284, 0, 140, -70, -246, -94, 81
23611, -909, 308, -284, 70, 140, -70, -247, -88, 90
23612, -909, 309, -282, 70, 140, -70, -241, -93, 97
23613, -909, 308, -283, 0, 140, 0, -238, -76, 85
23614, -908, 308, -283, 0, 140, -70, -253, -85, 91
23615, -909, 309, -284, 0, 210, -70, -250, -87, 90
23616, -909, 309, -284, 0, 140, -70, -241, -90, 85
23617, -909, 309, -284, 0, 210, -70, -250, -85, 90
23618, -908, 309, -283, 0, 210, -70, -247, -87, 78
23619, -909, 309, -283, 0, 140, -70, -256, -84, 82
23620, -909, 309, -284, -70, 210, -70, -244, -93, 91
23621, -909, 309, -284, 0, 210, -70, -243, -85, 87
23622, -909, 308, -282, 0, 210, -70, -244, -88, 81
23623, -909, 309, -283, 70, 210, -70, -249, -81, 93
23624, -909, 308, -283, -70, 210, -70, -250, -85, 79
23625, -909, 308, -284, 0, 210, -70, -243, -91, 100
23626, -909, 309, -284, 0, 140, -70, -247, -85, 87
23627, -908, 308, -282, 0, 140, -70, -246, -87, 85
23628, -909, 309, -283, 0, 210, -70, -241, -96, 88
23629, -909, 308, -284, 0, 140, -70, -256, -96, 91
23630, -909, 308, -284, 0, 70, -70, -243, -87, 91
23631, -909, 308, -284, 70, 140, -70, -249, -84, 84
23632, -909, 308, -283, 0, 70, -70, -250, -90, 78
23633, -909, 309, -283, 0, 140, -70, -258, -79, 91
23634, -909, 308, -283, 70, 210, -70, -246, -93, 84
23635, -909, 308, -283, 0, 140, -140, -258, -85, 88
23636, -909, 309, -284, 0, 140, -70, -243, -91, 90
23637, -909, 308, -284, 0, 140, -140, -249, -85, 90
23638, -910, 309, -284, 0, 140, -70, -247, -96, 85
23639, -908, 308, -284, 0, 70, -70, -247, -99, 88
23640, -909, 308, -283, 0, 140, -70, -243, -100, 88
23641, -909, 308, -283, -70, 140, -70, -253, -81, 88
23642, -909, 309, -284, 0, 70, -70, -238, -94, 88
23643, -908, 309, -284, 0, 210, -140, -247, -85, 85
23644, -909, 308, -283, 0, 140, -70, -243, -93, 87
23645, -909, 309, -283, 0, 210, -70, -250, -85, 87
23646, -909, 309, -283, 0, 210, -70, -244, -75, 81
23647, -910, 309, -284, 0, 210, -70, -244, -84, 96
23648, -909, 309, -283, 70, 140, -70, -249, -88, 90
23649, -909, 309, -283, 0, 140, -70, -235, -88, 78
23650, -909, 309, -283, 0, 140, -70, -246, -88, 88
23651, -908, 309, -283, 0, 210, -70, -247, -82, 93
23652, -909, 309, -284, 0, 210, -140, -246, -91, 87
23653, -909, 308, -283, 0, 210, -70, -252, -82, 90
23654, -908, 309, -283, 0, 140, -140, -246, -93, 88
23655, -908, 309, -284, 0, 140, -70, -247, -76, 96
23656, -909, 308, -283, 0, 140, -70, -240, -90, 81
23657, -909, 308, -284, 0, 140, -70, -247, -78, 94
23658, -909, 308, -283, 70, 140, -70, -240, -82, 82
23659, -908, 309, -283, 70, 210, -70, -244, -81, 84
23660, -910, 308, -283, 0, 140, -70, -238, -93, 87
23661, -909, 309, -283, 0, 140, -70, -249, -87, 93
23662, -909, 309, -285, -70, 210, -70, -244, -87, 91
23663, -909, 309, -285, 0, 280, -70, -243, -87, 84
23664, -909, 308, -283, -70, 210, -70, -247, -87, 90
23665, -909, 309, -284, 0, 210, -70, -246, -91, 97
23666, -909, 308, -284, 0, 140, -70, -249, -85, 96
23667, -909, 309, -284, -70, 210, -70, -243, -85, 85
23668, -908, 307, -284, 70, 210, -140, -240, -87, 81
23669, -909, 309, -283, 0, 140, -70, -244, -88, 87
23670, -910, 309, -283, 0, 210, -70, -238, -79, 93
23671, -909, 308, -284, 0, 140, -140, -237, -87, 85
23672, -909, 308, -284, 0, 210, -70, -243, -90, 81
23673, -908, 309, -283, 70, 140, -70, -249, -85, 91
23674, -909, 309, -283, 70, 140, -70, -250, -82, 87
23675, -910, 308, -284, -70, 210, -70, -241, -93, 94
23676, -909, 308, -284, 0, 210, -70, -244, -87, 91
23677, -909, 308, -283, 0, 140, -70, -244, -84, 100
23678, -908, 308, -283, 0, 140, -70, -241, -81, 93
23679, -909, 309, -284, -70, 140, -70, -247, -94, 91
23680, -909, 308, -284, 0, 210, -70, -247, -88, 94
23681, -909, 309, -284, 0, 140, -70, -247, -84, 96
23682, -909, 309, -284, 70, 210, -70, -250, -76, 93
23683, -909, 308, -283, -70, 140, -70, -238, -85, 88
23684, -909, 309, -284, 0, 210, -70, -237, -78, 96
23685, -909, 309, -283, 0, 210, -70, -241, -88, 87
23686, -909, 308, -283, 0, 140, -70, -250, -85, 91
23687, -908, 308, -283, 70, 210, -70, -246, -88, 91
23688, -909, 308, -284, 0, 210, -70, -252, -96, 84
23689, -909, 309, -283, 0, 140, -70, -241, -88, 87
23690, -909, 308, -282, 0, 210, -70, -249, -85, 93
23691, -908, 309, -283, 0, 140, -70, -249, -87, 96
23692, -909, 309, -284, 0, 210, -70, -240, -84, 88
23693, -910, 308, -284, 0, 210, -70, -241, -85, 87
23694, -909, 309, -283, 0, 140, -70, -250, -91, 96
23695, -909, 309, -284, 0, 210, -70, -252, -99, 97
23696, -909, 309, -283, 70, 210, -70, -250, -93, 93
23697, -909, 308, -284, -70, 140, -70, -247, -93, 84
23698, -909, 308, -284, 0, 140, -140, -238, -85, 85
23699, -909, 309, -283, 0, 140, -70, -241, -93, 85
23700, -908, 308, -284, -70, 140, -70, -250, -87, 85
23701, -909, 308, -283, 0, 210, -140, -240, -94, 85
23702, -909, 308, -284, 0, 140, -70, -250, -87, 96
23703, -910, 309, -283, 0, 210, -140, -246, -85, 75
23704, -909, 308, -283, 0, 140, -70, -253, -81, 87
23705, -909, 308, -284, 0, 140, -70, -244, -87, 81
23706, -909, 308, -284, 70, 210, -140, -246, -81, 82
23707, -909, 309, -284, -70, 140, -70, -241, -84, 88
23708, -909, 308, -284, -70, 140, -70, -243, -90, 91
23709, -909, 308, -283, 0, 140, -70, -255, -88, 84
23710, -909, 309, -284, 0, 210, -70, -246, -87, 81
23711, -909, 308, -283, 0, 210, -70, -246, -85, 82
23712, -909, 308, -283, 0, 210, -70, -252, -84, 79
23713, -909, 309, -283, 0, 210, -70, -246, -88, 85
23714, -909, 309, -283, 70, 210, -70, -247, -97, 82
23715, -908, 308, -283, -70, 140, -70, -249, -84, 78
23716, -909, 308, -284, 0, 140, 0, -249, -96, 84
23717, -909, 309, -284, 0, 140, -70, -250, -76, 91
23718, -909, 308, -284, -70, 140, -70, -243, -82, 79
23719, -909, 309, -284, 70, 140, -70, -244, -87, 84
23720, -909, 308, -284, 0, 140, -70, -244, -91, 87
23721, -909, 308, -283, 0, 140, -70, -249, -84, 88
23722, -909, 308, -284, 0, 210, -70, -240, -90, 84
23723, -909, 309, -283, 70, 280, -70, -249, -88, 94
23724, -909, 309, -284, 0, 140, -70, -244, -84, 84
23725, -908, 308, -284, -70, 140, 0, -237, -85, 88
23726, -909, 308, -284, 0, 210, -70, -247, -90, 87
23727, -908, 308, -285, 0, 210, -70, -250, -91, 84
23728, -909, 309, -283, 0, 140, -70, -243, -90, 82
23729, -909, 309, -283, 70, 140, -70, -246, -94, 93
23730, -909, 309, -284, 0, 140, -140, -247, -87, 82
23731, -908, 308, -283, 0, 140, -70, -246, -85, 87
23732, -909, 309, -283, 0, 210, -70, -253, -81, 87
23733, -911, 309, -285, 0, 70, -70, -252, -79, 90
23734, -908, 308, -283, 0, 280, -70, -243, -91, 87
23735, -909, 309, -284, 0, 0, -70, -243, -87, 90
23736, -903, 307, -279, 0, 140, -70, -244, -88, 88
23737, -915, 310, -286, 0, 280, -70, -244, -94, 87
23738, -912, 307, -285, 0, 0, -70, -244, -94, 87
23739, -907, 310, -284, -70, 280, -70, -247, -85, 84
23740, -910, 307, -285, 0, 140, -70, -255, -79, 81
23741, -908, 307, -283, -70, 280, -70, -250, -88, 76
23742, -908, 309, -283, 0, 70, -70, -252, -79, 90
23743, -908, 308, -284, 0, 210, -70, -246, -85, 82
23744, -909, 309, -284, -70, 210, -70, -256, -82, 88
23745, -910, 308, -283, -70, 140, -70, -249, -85, 91
23746, -908, 309, -282, 0, 140, -70, -241, -87, 72
23747, -909, 310, -283, 0, 140, -70, -246, -87, 79
23748, -909, 308, -285, -70, 210, -70, -246, -84, 78
23749, -910, 308, -283, 0, 140, -70, -250, -85, 90
23750, -910, 309, -285, 0, 140, -70, -240, -73, 87
23751, -909, 308, -283, 0, 140, -70, -247, -94, 85
23752, -909, 309, -283, 70, 70, -140, -249, -84, 85
23753, -908, 308, -284, 0, 140, -70, -247, -85, 87
23754, -909, 309, -284, 0, 210, -70, -244, -87, 85
23755, -909, 308, -284, -70, 140, -70, -252, -79, 88
23756, -909, 309, -283, 0, 140, -140, -241, -85, 70
23757, -908, 309, -283, -70, 210, -70, -243, -91, 88
23758, -909, 308, -283, -70, 210, -70, -246, -91, 79
23759, -909, 309, -283, 0, 210, -140, -253, -85, 87
23760, -908, 309, -285, 70, 140, -70, -243, -81, 85
23761, -909, 309, -283, 0, 140, -70, -252, -85, 94
23762, -909, 308, -284, 0, 140, -70, -249, -81, 76
23763, -908, 309, -284, 0, 140, -70, -247, -91, 88
23764, -910, 309, -284, -70, 210, 0, -247, -94, 78
23765, -909, 308, -283, 0, 140, -70, -244, -85, 87
23766, -909, 309, -283, 70, 140, -140, -243, -84, 82
23767, -910, 308, -284, 70, 140, -70, -250, -88, 82
23768, -909, 309, -283, 0, 140, -70, -235, -85, 76
23769, -910, 308, -284, 0, 140, -70, -253, -85, 87
23770, -909, 308, -284, 0, 210, -70, -249, -87, 88
23771, -909, 309, -283, 0, 140, -70, -249, -81, 84
23772, -909, 308, -284, 0, 140, -70, -246, -93, 91
23773, -909, 308, -284, 0, 210, -70, -246, -91, 84
23774, -909, 308, -283, 0, 140, -70, -250, -84, 82
23775, -909, 308, -284, 0, 140, -70, -243, -91, 76
23776, -909, 308, -283, 0, 140, -70, -237, -85, 88
23777, -908, 308, -283, 70, 140, -70, -244, -91, 85
23778, -909, 309, -284, 70, 140, -70, -247, -88, 85
23779, -909, 308, -284, 0, 140, -70, -246, -94, 81
23780, -909, 309, -283, 0, 140, -70, -241, -90, 85
23781, -908, 308, -283, 0, 140, -70, -247, -87, 85
23782, -909, 309, -283, 0, 210, -70, -249, -88, 91
23783, -909, 308, -282, -70, 140, -70, -250, -90, 93
23784, -909, 308, -283, -70, 70, -70, -249, -82, 82
23785, -909, 309, -284, 0, 210, -70, -240, -91, 78
23786, -909, 308, -283, 0, 140, -70, -246, -85, 90
23787, -909, 308, -283, 0, 210, -70, -241, -93, 87
23788, -909, 309, -283, 0, 140, -70, -238, -82, 88
23789, -909, 309, -284, 0, 140, -70, -256, -84, 85
23790, -908, 309, -283, 0, 140, -70, -244, -84, 87
23791, -909, 308, -283, 70, 140, -70, -244, -85, 82
23792, -909, 309, -284, 70, 210, -140, -252, -87, 84
23793, -909, 309, -284, 0, 140, -140, -253, -96, 87
23794, -909, 309, -283, 0, 140, -70, -243, -96, 82
23795, -909, 308, -283, 70, 140, -70, -232, -88, 81
23796, -909, 309, -283, 0, 140, -140, -246, -87, 91
23797, -910, 308, -283, 0, 210, -70, -243, -99, 90
23798, -909, 308, -284, 70, 140, -70, -246, -73, 85
23799, -909, 309, -283, 0, 210, -70, -240, -91, 81
23800, -909, 309, -283, 0, 140, -70, -252, -84, 84
23801, -909, 308, -284, 0, 140, -70, -246, -91, 82
23802, -908, 309, -283, 0, 140, -70, -244, -85, 90
23803, -904, 303, -281, 70, 140, -140, -247, -87, 91
23804, -904, 309, -273, 140, 770, -140, -240, -84, 84
23805, -922, 306, -282, 0, 630, -140, -244, -85, 87
23806, -919, 314, -295, -70, 70, -140, -249, -85, 90
23807, -909, 303, -279, 140, 0, -70, -243, -91, 88
23808, -891, 300, -265, 210, 630, -70, -246, -81, 94
23809, -907, 313, -285, 210, 980, -70, -246, -82, 91
23810, -914, 305, -282, 280, 1260, -70, -241, -90, 84
23811, -928, 314, -296, 140, 560, -140, -249, -90, 88
23812, -925, 319, -303, -140, -70, -70, -241, -84, 84
23813, -915, 316, -294, -350, -980, -140, -241, -91, 84
23814, -914, 312, -291, -630, -1680, -210, -252, -90, 85
23815, -895, 297, -268, -350, -1610, -210, -240, -85, 90
23816, -901, 296, -263, -140, -280, -140, -258, -85, 81
23817, -905, 309, -275, 0, 280, -70, -246, -93, 82
23818, -906, 315, -290, 0, 280, -70, -243, -81, 84
23819, -920, 309, -289, -140, -490, -70, -240, -90, 88
23820, -907, 311, -283, -210, -770, -140, -241, -84, 88
23821, -901, 307, -278, -210, -630, -70, -256, -82, 81
23822, -908, 303, -277, -140, -280, -70, -250, -81, 82
23823, -907, 306, -281, -70, 0, -70, -246, -78, 94
23824, -908, 307, -281, 0, 210, -70, -247, -88, 91
23825, -911, 307, -283, 0, 280, -70, -249, -85, 84
23826, -904, 306, -279, 140, 560, 0, -243, -85, 85
23827, -906, 306, -276, 210, 700, 0, -253, -90, 79
23828, -913, 307, -284, 140, 700, -70, -247, -90, 84
23829, -915, 316, -293, 0, 70, -70, -241, -81, 91
23830, -912, 311, -290, -140, -420, -70, -250, -87, 85
23831, -906, 305, -280, -140, -210, -140, -246, -90, 90
23832, -901, 300, -269, 70, -70, -70, -244, -79, 91
23833, -910, 313, -286, 70, 980, 0, -249, -90, 91
23834, -912, 313, -291, 70, 630, -70, -246, -91, 88
23835, -917, 309, -289, -70, 0, -70, -246, -90, 87
23836, -914, 311, -288, -70, -350, -70, -249, -96, 88
23837, -907, 309, -281, -140, -350, -70, -240, -81, 84
23838, -912, 306, -281, -70, -140, -70, -237, -85, 88
23839, -911, 309, -286, -70, -140, 0, -255, -85, 93
23840, -914, 307, -286, -140, -280, 70, -243, -84, 82
23841, -916, 303, -284, -140, -490, 70, -237, -82, 91
23842, -917, 302, -284, -140, -700, 70, -243, -88, 87
23843, -940, 302, -288, -210, -840, 420, -247, -87, 87
23844, -965, 308, -300, -420, -1610, 840, -253, -87, 84
23845, -1008, 312, -310, -910, -2940, 1610, -244, -90, 96
23846, -1046, 307, -329, -1400, -5390, 2800, -249, -79, 87
23847, -1009, 300, -327, -2590, -7630, 5950, -249, -82, 91
23848, -971, 316, -318, -3360, -7070, 7210, -240, -84, 91
23849, -948, 337, -311, -3920, -6790, 8260, -258, -79, 91
23850, -933, 342, -305, -4620, -5880, 9170, -244, -88, 90
23851, -932, 334, -289, -4970, -5390, 9800, -240, -81, 87
23852, -920, 301, -266, -4900, -6090, 10360, -241, -88, 84
23853, -915, 297, -264, -4690, -5740, 10500, -249, -73, 90
23854, -907, 301, -259, -4340, -5180, 10430, -247, -79, 87
23855, -914, 309, -264, -4200, -5110, 10430, -244, -84, 87
23856, -916, 320, -268, -4200, -5250, 10570, -250, -78, 82
23857, -930, 333, -282, -4410, -6230, 10710, -241, -72, 91
23858, -942, 335, -285, -4760, -6510, 11060, -240, -81, 82
23859, -957, 336, -285, -5040, -7560, 11620, -249, -75, 87
23860, -987, 336, -294, -5530, -8120, 12460, -241, -81, 87
23861, -1016, 326, -302, -6510, -9730, 14910, -243, -70, 85
23862, -1024, 323, -303, -7000, -10010, 16520, -235, -73, 82
23863, -1020, 325, -300, -7420, -10500, 18130, -241, -67, 91
23864, -1024, 330, -306, -7910, -10500, 19740, -241, -73, 82
23865, -1011, 340, -301, -8610, -10920, 21280, -235, -67, 87
23866, -1001, 351, -293, -9800, -11830, 24080, -238, -73, 81
23867, -1002, 356, -289, -10290, -12740, 25410, -237, -72, 76
23868, -999, 355, -284, -10920, -14070, 26600, -244, -66, 76
23869, -1005, 354, -285, -11410, -15190, 27790, -246, -57, 84
23870, -1002, 355, -278, -11970, -17710, 30380, -237, -64, 85
23871, -990, 359, -270, -12670, -17710, 31640, -238, -57, 87
23872, -992, 365, -269, -13090, -18760, 32900, -237, -58, 79
23873, -997, 369, -269, -13580, -19600, 34090, -238, -57, 87
23874, -996, 375, -265, -14000, -20930, 35280, -246, -55, 87
23875, -994, 382, -265, -15050, -23870, 37660, -235, -45, 81
23876, -994, 382, -257, -15470, -25340, 38920, -244, -51, 63
23877, -1005, 382, -258, -16030, -26950, 40250, -235, -48, 76
23878, -1006, 381, -253, -16450, -28560, 41580, -228, -40, 82
23879, -998, 385, -248, -16870, -30310, 42980, -228, -39, 81
23880, -987, 402, -237, -17570, -33250, 45780, -232, -31, 78
23881, -975, 412, -236, -17850, -34090, 46970, -231, -33, 78
23882, -965, 423, -228, -18130, -34860, 48160, -228, -28, 70
23883, -963, 429, -220, -18270, -35910, 49280, -234, -33, 76
23884, -953, 431, -210, -18900, -37800, 51450, -220, -22, 61
23885, -951, 441, -191, -19180, -39760, 52220, -232, -12, 60
23886, -954, 449, -188, -19390, -41510, 52990, -232, -9, 64
23887, -936, 451, -181, -19530, -43540, 53620, -226, -12, 67
23888, -907, 454, -163, -19530, -44170, 54390, -234, 0, 64
23889, -926, 469, -151, -19390, -44100, 55860, -226, -4, 58
23890, -937, 477, -145, -19250, -45360, 56490, -219, 7, 52
23891, -949, 485, -137, -19320, -46970, 57120, -222, -3, 58
23892, -946, 492, -125, -19320, -49420, 57750, -229, 15, 46
23893, -937, 491, -115, -19390, -51940, 58240, -229, 9, 42
23894, -901, 503, -96, -19250, -55300, 59010, -222, 24, 40
23895, -887, 514, -81, -19110, -56700, 59220, -217, 12, 39
23896, -884, 516, -65, -19040, -58590, 59360, -220, 25, 40
23897, -877, 515, -56, -18900, -61110, 59360, -226, 30, 37
23898, -853, 515, -47, -18200, -63350, 59430, -220, 34, 37
23899, -854, 568, -45, -17850, -63630, 59290, -213, 37, 34
23900, -834, 591, -36, -17290, -64190, 58800, -228, 48, 25
23901, -822, 603, -46, -16800, -63630, 58310, -217, 52, 22
23902, -785, 624, -22, -16310, -61390, 57820, -223, 51, 15
23903, -757, 645, 0, -15260, -59080, 56700, -214, 55, 12
23904, -744, 639, 6, -14560, -58940, 56070, -220, 57, 7
23905, -715, 630, 19, -13720, -57890, 55580, -222, 58, -1
23906, -746, 631, 6, -12530, -58170, 55020, -223, 69, -6
23907, -756, 629, 9, -11340, -59850, 54250, -220, 64, 0
23908, -775, 597, 14, -9590, -63490, 52500, -210, 79, -1
23909, -753, 591, 19, -9170, -63350, 51520, -231, 73, -3
23910, -688, 614, 51, -8540, -60900, 50680, -220, 85, -10
23911, -639, 657, 73, -7980, -56420, 50190, -214, 78, -24
23912, -613, 704, 102, -7350, -48580, 49700, -223, 91, -10
23913, -621, 737, 145, -7420, -46970, 49280, -216, 93, -21
23914, -646, 734, 154, -7560, -46550, 48790, -226, 97, -24
23915, -654, 717, 164, -7560, -46200, 48230, -223, 96, -24
23916, -661, 687, 164, -7490, -44240, 47950, -234, 109, -30
23917, -674, 644, 174, -6440, -39900, 47950, -217, 108, -37
23918, -672, 655, 191, -5880, -39200, 48090, -228, 105, -33
23919, -671, 664, 193, -5460, -38570, 48160, -217, 114, -43
23920, -665, 669, 190, -5040, -38360, 48090, -226, 111, -37
23921, -677, 674, 183, -4690, -38010, 47950, -229, 121, -49
23922, -681, 685, 174, -4410, -38920, 47670, -232, 121, -52
23923, -676, 695, 170, -4340, -39970, 47670, -229, 127, -39
23924, -672, 709, 170, -4270, -40670, 47810, -237, 132, -48
23925, -648, 720, 180, -3990, -40950, 48020, -235, 133, -39
23926, -638, 728, 179, -3150, -37870, 48650, -240, 126, -45
23927, -588, 730, 174, -2520, -35000, 49070, -231, 141, -54
23928, -567, 728, 176, -1890, -31500, 49700, -231, 144, -52
23929, -553, 729, 178, -1190, -27930, 50330, -231, 159, -51
23930, -553, 740, 177, -630, -24220, 51030, -235, 150, -55
23931, -590, 773, 176, 140, -18480, 52710, -240, 145, -52
23932, -619, 787, 175, 350, -17290, 53410, -240, 154, -57
23933, -648, 796, 171, 140, -17570, 53900, -244, 162, -58
23934, -664, 797, 164, -140, -19810, 54250, -247, 165, -55
23935, -667, 792, 163, -420, -22750, 54460, -255, 166, -45
23936, -647, 776, 167, -980, -29960, 54530, -250, 174, -58
23937, -630, 774, 170, -1050, -33110, 54670, -247, 172, -49
23938, -605, 777, 173, -980, -35490, 54810, -250, 180, -55
23939, -581, 785, 177, -770, -36400, 55230, -243, 184, -67
23940, -539, 799, 189, -70, -35420, 56560, -262, 186, -60
23941, -511, 804, 192, 280, -33600, 57190, -250, 189, -66
23942, -484, 806, 196, 700, -31150, 57820, -256, 184, -64
23943, -476, 811, 197, 1050, -28910, 58450, -259, 201, -61
23944, -471, 817, 195, 1330, -27790, 58800, -255, 189, -60
23945, -429, 816, 201, 1750, -26670, 58940, -270, 213, -58
23946, -414, 814, 207, 1960, -25970, 58660, -271, 207, -63
23947, -404, 815, 205, 2170, -26180, 58100, -262, 217, -64
23948, -403, 822, 205, 2030, -27160, 57610, -262, 208, -63
23949, -406, 830, 207, 1890, -28700, 57050, -264, 225, -64
23950, -391, 840, 215, 1610, -32130, 55790, -271, 211, -66
23951, -373, 841, 223, 1680, -32480, 55230, -277, 216, -69
23952, -361, 843, 225, 1820, -32200, 54810, -277, 232, -70
23953, -360, 847, 225, 1890, -31990, 54460, -279, 229, -76
23954, -348, 861, 227, 2030, -32760, 54110, -286, 231, -73
23955, -336, 863, 231, 2100, -32410, 54040, -280, 238, -64
23956, -330, 863, 232, 2450, -31430, 53970, -286, 238, -72
23957, -321, 862, 235, 2730, -30520, 53900, -289, 246, -78
23958, -316, 863, 235, 3010, -30100, 53830, -286, 243, -79
23959, -299, 866, 238, 3430, -29120, 53690, -303, 249, -73
23960, -296, 873, 241, 3640, -28490, 53760, -297, 262, -73
23961, -303, 883, 239, 3640, -28420, 53690, -298, 243, -79
23962, -299, 891, 240, 3640, -28630, 53690, -297, 256, -73
23963, -300, 893, 239, 3640, -29050, 53620, -298, 256, -75
23964, -286, 888, 242, 3780, -29960, 53690, -310, 258, -84
23965, -271, 888, 244, 3990, -30240, 53690, -312, 259, -73
23966, -257, 889, 243, 4200, -30450, 53550, -310, 268, -84
23967, -239, 892, 246, 4410, -30380, 53410, -318, 270, -82
23968, -227, 901, 243, 4340, -31430, 53060, -309, 270, -82
23969, -224, 905, 240, 4130, -32900, 52710, -322, 277, -76
23970, -215, 906, 242, 3920, -34510, 52430, -321, 285, -79
23971, -207, 904, 243, 3990, -35140, 52290, -325, 277, -90
23972, -182, 902, 248, 4200, -35140, 52150, -324, 279, -82
23973, -140, 896, 251, 5040, -32410, 52220, -325, 280, -82
23974, -111, 896, 254, 5810, -30030, 52360, -337, 297, -87
23975, -88, 899, 255, 6300, -26880, 52430, -345, 288, -84
23976, -68, 904, 254, 6930, -23380, 52640, -336, 288, -87
23977, -46, 910, 254, 7420, -19530, 52920, -339, 297, -78
23978, -38, 918, 248, 8190, -11690, 53060, -346, 301, -91
23979, -52, 921, 250, 8330, -8960, 53060, -345, 294, -79
23980, -69, 922, 246, 8330, -8540, 52710, -343, 301, -82
23981, -87, 922, 245, 8050, -8960, 52220, -346, 312, -78
23982, -111, 924, 235, 7210, -13790, 50610, -346, 312, -82
23983, -83, 928, 238, 6790, -17220, 49700, -357, 307, -70
23984, -54, 934, 239, 6510, -19320, 48860, -367, 307, -78
23985, -24, 932, 237, 6370, -19530, 48300, -363, 310, -73
23986, 6, 932, 242, 6440, -19390, 47740, -358, 324, -84
23987, 49, 926, 239, 6790, -16030, 46970, -360, 318, -87
23988, 48, 925, 235, 6860, -13790, 46480, -363, 325, -66
23989, 51, 928, 233, 7000, -12880, 45990, -370, 330, -72
23990, 54, 932, 234, 6930, -12180, 45290, -372, 322, -72
23991, 49, 935, 230, 6650, -11130, 44100, -372, 330, -69
23992, 55, 936, 234, 6650, -11130, 43400, -373, 327, -75
23993, 61, 939, 232, 6580, -10990, 42770, -375, 328, -54
23994, 74, 936, 234, 6720, -10640, 42210, -376, 331, -72
23995, 67, 935, 229, 6650, -9310, 41720, -384, 331, -70
23996, 96, 941, 232, 6650, -8190, 40530, -391, 339, -73
23997, 113, 941, 233, 6790, -7000, 39970, -384, 331, -67
23998, 124, 938, 233, 6720, -6090, 39340, -385, 339, -64
23999, 115, 939, 223, 6510, -5600, 38570, -391, 328, -60
24000, 119, 943, 222, 6230, -6230, 37660, -396, 343, -70
24001, 161, 948, 209, 5320, -9660, 34930, -393, 343, -55
24002, 239, 934, 228, 5320, -7980, 33250, -396, 340, -61
24003, 322, 920, 223, 5600, -7070, 31150, -394, 343, -57
24004, 338, 914, 204, 5460, -2730, 29190, -394, 354, -64
24005, 384, 919, 211, 5320, 3360, 25900, -406, 345, -69
24006, 286, 962, 209, 4830, 2660, 24220, -402, 346, -58
24007, 196, 974, 199, 4060, 2800, 22470, -402, 345, -57
24008, 166, 976, 203, 3290, 350, 20580, -403, 349, -66
24009, 110, 976, 194, 2380, -2940, 18690, -408, 355, -55
24010, 128, 960, 191, 910, -12530, 14910, -415, 352, -58
24011, 164, 953, 193, 350, -16100, 13370, -412, 345, -63
24012, 164, 955, 186, -70, -18830, 12040, -411, 354, -63
24013, 181, 964, 186, -490, -20860, 10850, -421, 363, -67
24014, 182, 971, 181, -980, -22680, 9590, -411, 351, -57
24015, 208, 966, 181, -1750, -24080, 7350, -411, 355, -55
24016, 224, 962, 184, -1890, -23310, 6370, -417, 352, -67
24017, 227, 959, 184, -1820, -22190, 5600, -411, 352, -64
24018, 220, 961, 184, -1680, -20300, 4900, -406, 352, -67
24019, 202, 963, 185, -1680, -18550, 3710, -414, 358, -70
24020, 151, 973, 184, -1820, -19320, 3220, -412, 354, -70
24021, 129, 973, 185, -2170, -20440, 2590, -412, 363, -73
24022, 111, 971, 188, -2520, -22470, 2100, -417, 360, -61
24023, 96, 973, 190, -2870, -24920, 1610, -412, 346, -72
24024, 86, 971, 199, -3640, -30240, 840, -411, 345, -70
24025, 104, 967, 207, -3640, -32270, 700, -412, 352, -67
24026, 128, 968, 214, -3570, -31850, 770, -409, 358, -72
24027, 154, 971, 220, -3290, -29680, 1120, -403, 355, -73
24028, 167, 969, 224, -2940, -25900, 1610, -423, 354, -82
24029, 158, 963, 226, -1960, -18550, 3080, -409, 357, -82
24030, 134, 962, 227, -1400, -16030, 3920, -414, 354, -82
24031, 112, 961, 233, -840, -14210, 4690, -409, 355, -76
24032, 93, 963, 235, -420, -12950, 5390, -412, 354, -84
24033, 87, 962, 237, 560, -10220, 6860, -412, 355, -76
24034, 88, 964, 240, 980, -8820, 7700, -426, 357, -78
24035, 92, 965, 240, 1260, -7700, 8610, -411, 364, -88
24036, 92, 965, 241, 1540, -6580, 9520, -415, 349, -79
24037, 103, 963, 244, 2030, -5460, 10430, -420, 355, -78
24038, 108, 955, 245, 2800, -3010, 11900, -424, 360, -78
24039, 106, 955, 240, 3080, -2590, 12390, -412, 357, -82
24040, 113, 958, 240, 3220, -2660, 12810, -418, 352, -81
24041, 119, 961, 238, 3290, -3220, 13160, -421, 366, -79
24042, 129, 965, 237, 3290, -3290, 13440, -417, 357, -81
24043, 141, 963, 232, 3220, -3430, 13790, -427, 363, -78
24044, 152, 959, 226, 3220, -3920, 13790, -421, 343, -72
24045, 170, 954, 223, 3010, -4340, 13650, -420, 363, -76
24046, 191, 949, 219, 3010, -4550, 13440, -432, 361, -72
24047, 223, 945, 212, 3150, -3430, 12880, -420, 358, -78
24048, 233, 946, 209, 3290, -2380, 12600, -420, 355, -81
24049, 244, 947, 208, 3360, -1330, 12180, -429, 364, -73
24050, 250, 947, 204, 3430, 140, 11760, -426, 358, -79
24051, 257, 946, 204, 3430, 1400, 11270, -429, 358, -78
24052, 257, 949, 202, 3500, 4270, 10220, -433, 366, -76
24053, 260, 948, 199, 3500, 5390, 9660, -429, 360, -72
24054, 267, 945, 201, 3430, 6230, 8960, -424, 358, -73
24055, 262, 948, 203, 3500, 7350, 8330, -435, 369, -72
24056, 258, 954, 202, 3360, 7910, 7700, -432, 349, -66
24057, 239, 956, 198, 2870, 8400, 6370, -432, 363, -70
24058, 227, 958, 199, 2590, 7840, 5670, -435, 363, -70
24059, 217, 961, 198, 2240, 6510, 5040, -426, 369, -76
24060, 200, 963, 196, 1680, 4690, 4270, -433, 363, -70
24061, 214, 956, 197, 980, 1610, 2940, -432, 367, -70
24062, 235, 950, 200, 840, 1050, 2310, -435, 364, -76
24063, 244, 948, 197, 840, 1470, 1890, -427, 357, -72
24064, 250, 951, 196, 980, 2800, 1610, -426, 360, -72
24065, 241, 955, 196, 1050, 3920, 1330, -439, 357, -78
24066, 227, 956, 198, 1050, 5810, 910, -435, 363, -63
24067, 214, 954, 200, 980, 6720, 770, -433, 357, -72
24068, 201, 955, 200, 1120, 7140, 630, -423, 355, -81
24069, 188, 956, 201, 1120, 7070, 560, -439, 361, -73
24070, 178, 960, 202, 980, 6440, 350, -429, 363, -63
24071, 156, 968, 192, 350, 2730, -280, -429, 363, -67
24072, 177, 966, 199, 0, 630, -560, -432, 366, -72
24073, 198, 962, 203, -140, 70, -840, -430, 363, -73
24074, 199, 962, 199, -210, 70, -910, -441, 360, -60
24075, 203, 965, 196, -420, -420, -1190, -438, 360, -64
24076, 200, 960, 195, -560, -560, -1470, -436, 357, -63
24077, 198, 956, 195, -560, -630, -1470, -426, 361, -75
24078, 183, 959, 193, -560, -210, -1470, -435, 358, -69
24079, 192, 960, 197, -560, -560, -1610, -424, 373, -63
24080, 185, 960, 197, -490, -770, -1610, -430, 364, -66
24081, 178, 960, 195, -560, -910, -1540, -427, 367, -57
24082, 183, 959, 199, -560, -840, -1470, -427, 360, -61
24083, 179, 960, 201, -490, -490, -1400, -433, 364, -70
24084, 179, 961, 203, -490, -350, -1330, -430, 360, -60
24085, 183, 960, 207, -490, -350, -1260, -438, 361, -55
24086, 186, 958, 209, -420, -490, -1260, -427, 363, -73
24087, 187, 957, 210, -490, -700, -1330, -424, 366, -70
24088, 189, 956, 211, -560, -840, -1400, -424, 363, -70
24089, 190, 958, 210, -840, -1960, -1820, -439, 361, -73
24090, 197, 957, 212, -910, -2240, -2030, -427, 369, -67
24091, 207, 957, 211, -980, -2730, -2310, -441, 364, -60
24092, 211, 956, 209, -1050, -2660, -2590, -424, 358, -69
24093, 219, 955, 209, -980, -2240, -2800, -418, 363, -72
24094, 221, 952, 210, -980, -1190, -3290, -430, 364, -69
24095, 219, 952, 208, -910, -140, -3360, -424, 358, -82
24096, 211, 954, 206, -840, 770, -3570, -438, 367, -67
24097, 211, 954, 208, -910, 1190, -3780, -438, 357, -72
24098, 209, 952, 209, -700, 2030, -4130, -421, 363, -73
24099, 193, 958, 207, -840, 1680, -4340, -436, 364, -75
24100, 192, 959, 209, -910, 1470, -4550, -432, 360, -63
24101, 188, 961, 206, -1050, 1120, -4900, -430, 355, -72
24102, 194, 961, 206, -1120, 840, -5110, -430, 366, -75
24103, 196, 956, 205, -1190, 1750, -5390, -436, 363, -73
24104, 191, 958, 206, -1190, 1330, -5600, -430, 364, -79
24105, 194, 957, 206, -1190, 1120, -5810, -427, 355, -69
24106, 187, 958, 205, -1260, 1680, -5950, -435, 366, -72
24107, 186, 959, 207, -1190, 1820, -6090, -432, 360, -70
24108, 181, 960, 208, -1330, 2030, -6300, -424, 369, -75
24109, 179, 960, 208, -1400, 1820, -6370, -418, 354, -72
24110, 181, 960, 209, -1400, 1820, -6580, -426, 367, -75
24111, 178, 960, 208, -1330, 2030, -6650, -432, 364, -69
24112, 177, 958, 208, -1470, 2240, -6860, -427, 361, -70
24113, 182, 958, 213, -1400, 2170, -7000, -424, 358, -72
24114, 178, 961, 211, -1400, 2310, -7140, -420, 361, -73
24115, 176, 959, 211, -1400, 2870, -7210, -421, 363, -76
24116, 178, 960, 214, -1470, 2870, -7350, -418, 355, -76
24117, 182, 958, 214, -1470, 2870, -7770, -424, 358, -66
24118, 178, 958, 212, -1540, 3150, -7980, -418, 354, -72
24119, 184, 961, 214, -1540, 3150, -8190, -421, 352, -69
24120, 176, 962, 215, -1680, 3220, -8400, -424, 357, -75
24121, 174, 960, 215, -1750, 3150, -8680, -420, 364, -70
24122, 109, 954, 229, -1260, 4900, -7560, -424, 349, -76
24123, 90, 974, 230, -980, 4340, -7210, -421, 357, -75
24124, 89, 987, 216, -1400, 3570, -7070, -414, 354, -75
24125, 109, 981, 218, -1680, 1610, -7210, -414, 361, -72
24126, 141, 962, 215, -1680, 910, -7070, -424, 363, -79
24127, 152, 950, 214, -1470, 2450, -6720, -420, 351, -76
24128, 141, 959, 220, -1190, 2170, -6510, -420, 354, -73
24129, 112, 960, 224, -1050, 3150, -6090, -408, 349, -76
24130, 107, 963, 238, -560, 4410, -5250, -408, 352, -75
24131, 45, 984, 232, 0, 7490, -2870, -420, 348, -82
24132, 10, 987, 227, 0, 6510, -1960, -418, 361, -75
24133, 20, 981, 226, -140, 4060, -1470, -414, 358, -72
24134, 30, 968, 221, -490, -70, -1540, -417, 355, -78
24135, 85, 952, 227, -560, -3570, -1680, -415, 354, -69
24136, 178, 954, 230, -350, -3920, -1190, -420, 360, -78
24137, 189, 969, 230, -140, -1400, -700, -415, 354, -78
24138, 179, 975, 230, -70, 1680, -420, -415, 357, -72
24139, 148, 971, 229, -70, 2660, -420, -424, 367, -79
24140, 124, 963, 225, -210, 490, -980, -418, 354, -88
24141, 131, 947, 222, -280, -630, -1260, -417, 352, -67
24142, 157, 950, 223, -70, -1190, -1400, -424, 351, -81
24143, 161, 965, 222, 0, -210, -1330, -417, 352, -66
24144, 163, 974, 222, 0, 770, -1120, -417, 354, -79
24145, 118, 966, 227, -210, 1610, -840, -415, 358, -70
24146, 91, 959, 228, 0, 1540, -490, -414, 355, -79
24147, 88, 960, 229, 140, 1120, -210, -420, 360, -73
24148, 86, 970, 224, 140, 350, 0, -418, 355, -75
24149, 104, 974, 222, 140, -700, 140, -408, 357, -76
24150, 142, 968, 217, -70, -1050, 560, -412, 352, -69
24151, 147, 964, 214, 0, -560, 770, -423, 361, -76
24152, 144, 962, 215, 140, 280, 840, -409, 360, -78
24153, 137, 960, 213, 210, 350, 840, -417, 357, -67
24154, 136, 962, 212, 210, -490, 560, -418, 351, -76
24155, 152, 967, 212, 210, -420, 490, -406, 361, -72
24156, 159, 965, 213, 140, -140, 420, -420, 355, -75
24157, 155, 965, 214, 0, 350, 350, -415, 363, -70
24158, 153, 965, 214, 0, 350, 280, -421, 361, -81
24159, 151, 960, 218, -70, 0, -70, -421, 357, -73
24160, 151, 960, 218, -70, 0, -210, -411, 349, -66
24161, 156, 960, 219, -70, 210, -350, -421, 349, -69
24162, 155, 962, 219, -140, 280, -420, -417, 361, -73
24163, 154, 963, 220, -70, 420, -560, -418, 355, -73
24164, 150, 964, 222, -210, 490, -910, -417, 354, -78
24165, 150, 961, 221, -280, 420, -1050, -423, 366, -73
24166, 152, 959, 220, -280, 350, -1190, -415, 357, -78
24167, 155, 959, 219, -210, 350, -1330, -415, 357, -76
24168, 154, 963, 218, -210, 630, -1610, -420, 357, -84
24169, 150, 965, 218, -210, 770, -1750, -423, 357, -78
24170, 150, 965, 217, -350, 700, -1890, -418, 358, -76
24171, 148, 964, 216, -420, 630, -1960, -420, 351, -75
24172, 152, 963, 216, -420, 490, -2170, -417, 346, -79
24173, 153, 962, 215, -420, 700, -2450, -417, 355, -64
24174, 150, 963, 215, -490, 770, -2590, -417, 354, -78
24175, 150, 963, 216, -490, 910, -2730, -415, 358, -70
24176, 148, 964, 216, -560, 980, -2870, -417, 352, -76
24177, 148, 965, 216, -560, 980, -3010, -406, 355, -73
24178, 149, 964, 217, -700, 980, -3290, -417, 346, -76
24179, 149, 963, 217, -700, 980, -3430, -414, 357, -70
24180, 148, 962, 218, -700, 1050, -3570, -411, 349, -75
24181, 148, 962, 218, -700, 1050, -3780, -421, 357, -70
24182, 148, 963, 219, -770, 1260, -4060, -412, 354, -81
24183, 147, 965, 220, -840, 1260, -4200, -417, 361, -73
24184, -331, 933, -292, -4550, -15400, -7280, -409, 369, -81
24185, 610, 1006, 707, 910, -11830, -4130, -412, 351, -75
24186, 106, 981, 190, -1120, -33880, -8610, -414, 357, -87
24187, 64, 1025, 261, -21700, -2170, -9870, -420, 349, -91
24188, 191, 931, 125, -24710, -4760, -12600, -418, 357, -82
24189, 140, 901, 158, -9940, -3990, -7000, -414, 354, -76
24190, 181, 922, 227, -1750, -1960, -5600, -412, 348, -75
24191, 155, 973, 215, 1960, 2730, -2590, -417, 352, -82
24192, 138, 995, 226, -1120, 4690, -6580, -406, 348, -79
24193, 187, 961, 240, -1400, 4900, -6860, -412, 354, -81
24194, 145, 940, 248, -1400, 4900, -7210, -403, 357, -84
24195, 169, 926, 244, -980, 5180, -7770, -418, 346, -87
24196, 177, 940, 262, -420, 7000, -9590, -411, 343, -82
24197, 142, 961, 248, -840, 11830, -10080, -417, 354, -76
24198, 120, 949, 192, -560, 7980, -9730, -417, 354, -81
24199, 585, 929, 558, 12040, 20650, -5460, -409, 354, -76
24200, -245, 987, -91, 2310, 7280, -9520, -408, 349, -78
24201, 168, 959, 269, 4060, -12950, -12670, -412, 349, -78
24202, 66, 955, 157, -1890, 13230, -10780, -418, 352, -84
24203, 172, 963, 299, -1400, 3430, -12460, -409, 351, -79
24204, 144, 960, 215, -1610, -70, -13440, -403, 346, -79
24205, 77, 969, 196, -2800, 5810, -13160, -400, 348, -76
24206, 101, 964, 209, -2660, 2730, -14210, -402, 346, -78
24207, 139, 959, 234, -2940, 5180, -14280, -403, 352, -81
24208, 111, 959, 229, -2730, 3500, -14700, -400, 346, -76
24209, 121, 957, 235, -2870, 4340, -14980, -402, 342, -81
24210, 113, 963, 232, -3080, 4760, -15540, -397, 342, -81
24211, 111, 968, 223, -3010, 3220, -15890, -397, 340, -76
24212, 108, 969, 225, -3360, 4760, -16170, -394, 349, -93
24213, 119, 965, 225, -3360, 3640, -16450, -397, 343, -79
24214, 102, 962, 223, -3500, 4970, -16730, -399, 351, -88
24215, 96, 961, 218, -3500, 4970, -17500, -403, 343, -82
24216, 118, 962, 223, -3640, 4410, -17990, -393, 334, -81
24217, 96, 964, 214, -3710, 4900, -18340, -396, 342, -88
24218, 116, 965, 221, -3850, 4830, -18830, -394, 336, -85
24219, 97, 966, 215, -4060, 5320, -19670, -388, 337, -87
24220, 96, 962, 218, -4200, 5250, -20230, -394, 343, -85
24221, 103, 961, 221, -4200, 5600, -20720, -387, 337, -88
24222, 92, 961, 218, -4410, 5600, -21280, -394, 339, -79
24223, 98, 961, 221, -4550, 5810, -21770, -388, 340, -90
24224, 96, 963, 222, -4830, 6230, -22890, -382, 334, -88
24225, 90, 961, 221, -4900, 6230, -23450, -384, 334, -88
24226, 90, 961, 221, -5040, 6650, -24080, -385, 334, -82
24227, 89, 963, 217, -5250, 6440, -24710, -381, 321, -85
24228, 86, 961, 219, -5460, 6930, -25410, -376, 331, -88
24229, 83, 954, 218, -5670, 7490, -26810, -372, 334, -96
24230, 87, 954, 221, -5740, 7420, -27580, -384, 337, -96
24231, 81, 953, 221, -5880, 7630, -28350, -378, 331, -93
24232, 86, 954, 222, -6020, 7840, -29120, -370, 331, -84
24233, 81, 955, 222, -6440, 8540, -30800, -361, 327, -102
24234, 78, 953, 224, -6650, 8750, -31710, -378, 319, -94
24235, 53, 950, 224, -7070, 9450, -32480, -364, 318, -93
24236, 23, 953, 229, -7070, 10010, -32830, -372, 321, -96
24237, -33, 973, 224, -7140, 11410, -32480, -366, 331, -100
24238, -204, 1014, 219, -7070, 16450, -29050, -372, 331, -90
24239, -330, 1028, 225, -6300, 20160, -25130, -363, 318, -96
