Time [mS], AccX [mg],AccY [mg],AccZ [mg],GyroX [mdps],GyroY [mdps],GyroZ [mdps],MagX [mgauss],MagY [mgauss],MagZ [mgauss]
995, 214, 954, 209, 980, -490, 9100, -483, 348, -163
996, 212, 960, 208, 980, 0, 5740, -478, 336, -166
997, 217, 956, 204, 770, 140, 4270, -481, 348, -159
998, 220, 951, 205, 770, 140, 4340, -484, 342, -157
999, 226, 946, 205, 770, 70, 6860, -474, 339, -153
1000, 214, 953, 206, 770, 210, 9240, -486, 342, -157
1001, 213, 955, 208, 210, -70, 9940, -490, 345, -153
1002, 213, 957, 206, -70, -350, 7980, -490, 343, -160
1003, 222, 954, 206, 280, -630, 7280, -487, 355, -162
1004, 226, 949, 206, 280, -560, 7490, -484, 349, -162
1005, 223, 951, 207, 560, -210, 8820, -486, 349, -157
1006, 221, 958, 208, 560, -70, 7630, -487, 343, -154
1007, 221, 957, 207, 420, 0, 5530, -486, 340, -157
1008, 223, 955, 208, 350, 70, 3360, -483, 352, -156
1009, 223, 955, 208, 140, 0, 1680, -486, 349, -157
1010, 223, 956, 209, -490, -490, 350, -493, 340, -157
1011, 228, 952, 210, -700, -700, 350, -483, 343, -150
1012, 235, 949, 210, -1050, -560, 700, -489, 348, -154
1013, 239, 946, 209, -1540, -280, 1120, -487, 360, -162
1014, 239, 944, 206, -1540, -140, 1330, -489, 343, -157
1015, 237, 948, 206, -560, 280, 980, -486, 342, -157
1016, 238, 949, 206, -420, 420, 840, -487, 342, -165
1017, 241, 945, 207, -280, 140, 1820, -493, 337, -154
1018, 238, 946, 203, -280, -140, 4620, -483, 343, -163
1019, 235, 943, 188, -1050, 910, -420, -496, 357, -159
1020, 238, 946, 208, -560, -210, -140, -493, 349, -162
1021, 245, 950, 200, -420, -70, -70, -493, 354, -154
1022, 236, 953, 201, -770, 210, -490, -487, 343, -154
1023, 237, 953, 203, -910, 420, -840, -486, 346, -165
1024, 236, 949, 202, -630, 700, -1400, -481, 346, -166
1025, 235, 949, 203, -700, 490, -1540, -490, 349, -163
1026, 231, 950, 206, -980, 420, -1820, -478, 357, -160
1027, 227, 953, 210, -1400, 210, -2310, -487, 349, -154
1028, 224, 954, 217, -2030, 140, -2730, -484, 352, -157
1029, 224, 958, 228, -5740, -770, -3500, -495, 349, -156
1030, 228, 952, 226, -7840, -350, -5460, -478, 339, -154
1031, 237, 933, 209, -7000, 840, -7140, -486, 336, -168
1032, 231, 944, 211, -3570, 2730, -8960, -489, 343, -157
1033, 240, 941, 216, -280, 7840, -12250, -486, 348, -147
1034, 209, 951, 205, -210, 4550, -10220, -478, 342, -159
1035, 217, 946, 207, -70, 2240, -10360, -490, 348, -150
1036, 213, 950, 212, -840, 630, -5740, -487, 343, -157
1037, 194, 960, 213, -2240, -2100, -3010, -475, 352, -154
1038, 233, 949, 222, -4130, -3220, -3850, -484, 343, -168
1039, 225, 962, 234, -2870, 6230, -7980, -486, 355, -160
1040, 239, 935, 210, -4270, 5600, -9660, -480, 345, -160
1041, 244, 933, 209, -2170, 5740, -5530, -484, 349, -156
1042, 181, 961, 219, -1330, 4200, -8470, -478, 348, -162
1043, 182, 958, 218, -4130, 2590, -10150, -480, 346, -162
1044, 196, 951, 210, -4130, 1190, -10500, -481, 351, -162
1045, 217, 944, 208, -3430, -350, -8330, -483, 342, -159
1046, 223, 946, 212, -2800, 0, -5810, -475, 333, -166
1047, 220, 954, 219, -2800, 2870, -5740, -475, 346, -163
1048, 206, 954, 217, -2520, 3290, -5320, -481, 339, -174
1049, 119, 1027, 264, -6580, 2730, -16800, -481, 337, -160
1050, 222, 915, 189, -10430, 6090, -30800, -471, 340, -159
1051, 235, 909, 194, -2870, -210, -8050, -472, 340, -168
1052, 188, 960, 227, -2240, -1890, -5250, -477, 343, -175
1053, 195, 959, 228, -2450, -1540, -6510, -478, 346, -162
1054, 203, 953, 227, -2240, -1050, -6720, -466, 339, -165
1055, 199, 951, 228, -2100, -350, -6090, -466, 346, -159
1056, 191, 950, 228, -1960, -420, -5810, -474, 342, -174
1057, 165, 960, 234, -1890, -630, -7560, -474, 340, -178
1058, 133, 972, 234, -1750, -210, -13720, -477, 337, -169
1059, 199, 943, 235, -1610, -490, -17360, -475, 343, -166
1060, 191, 947, 234, -1680, -1470, -9310, -477, 346, -171
1061, 177, 953, 236, -1470, -1540, -5530, -478, 331, -165
1062, 170, 954, 236, -1330, -1120, -5600, -471, 346, -174
1063, 168, 954, 237, -1190, -910, -6440, -477, 339, -169
1064, 169, 952, 239, -1330, -980, -5740, -466, 331, -172
1065, 163, 956, 238, -1540, -1400, -4340, -475, 333, -160
1066, 168, 958, 239, -1750, -1890, -3570, -469, 334, -178
1067, 167, 957, 238, -1680, -1820, -3220, -462, 337, -165
1068, 167, 953, 237, -1680, -1540, -2870, -466, 340, -174
1069, 163, 952, 236, -1470, -1400, -2590, -469, 337, -163
1070, 162, 955, 237, -1260, -1120, -2240, -469, 334, -166
1071, 161, 958, 236, -1120, -1050, -2380, -457, 336, -174
1072, 158, 963, 240, -1540, -1540, -3920, -460, 336, -162
1073, 163, 956, 231, -1400, -560, -3850, -462, 328, -168
1074, 163, 955, 233, -1050, -420, -2660, -469, 336, -175
1075, 158, 956, 236, -630, -280, -1470, -472, 336, -168
1076, 157, 957, 233, -490, -70, -1190, -469, 336, -169
1077, 157, 957, 233, -420, 70, -980, -469, 340, -175
1078, 161, 957, 231, -210, 70, -770, -475, 337, -177
1079, 164, 956, 230, -70, 70, -700, -468, 333, -171
1080, 167, 960, 231, 70, 210, -420, -472, 339, -166
1081, 168, 960, 230, 70, 420, -280, -471, 340, -166
1082, 170, 958, 229, 70, 560, -280, -459, 337, -175
1083, 173, 957, 229, 70, 840, -210, -462, 327, -180
1084, 179, 957, 227, 210, 1400, -140, -469, 336, -174
1085, 183, 952, 226, 280, 1680, -140, -471, 342, -177
1086, 179, 954, 226, 210, 1820, -210, -471, 339, -174
1087, 175, 956, 227, 210, 1610, -210, -472, 337, -166
1088, 168, 958, 229, 140, 1120, -350, -472, 343, -166
1089, 172, 957, 233, -140, -350, -630, -471, 337, -166
1090, 174, 957, 238, -350, -560, -630, -462, 334, -168
1091, 175, 954, 240, -350, -700, -700, -465, 334, -178
1092, 179, 952, 242, -280, -350, -560, -472, 333, -174
1093, 176, 952, 242, -210, 0, -560, -465, 328, -178
1094, 167, 953, 245, -70, 490, -350, -471, 334, -166
1095, 162, 955, 244, 0, 420, -280, -469, 334, -177
1096, 155, 957, 248, 70, 350, -140, -465, 334, -172
1097, 156, 956, 247, 70, -210, -70, -469, 334, -166
1098, 152, 953, 245, 210, -350, 140, -471, 337, -175
1099, 169, 950, 245, 350, -140, 420, -466, 330, -171
1100, 169, 957, 246, 490, 490, 560, -468, 327, -168
1101, 173, 953, 247, 630, 630, 630, -468, 334, -171
1102, 164, 958, 246, 770, 1120, 840, -468, 342, -171
1103, 161, 960, 242, 910, 1820, 1050, -463, 334, -169
1104, 171, 951, 238, 1050, 2310, 1190, -462, 331, -172
1105, 174, 951, 232, 1120, 2660, 1330, -471, 334, -177
1106, 178, 952, 229, 1260, 3290, 1540, -465, 328, -166
1107, 171, 959, 227, 1470, 3850, 1680, -465, 331, -175
1108, 163, 956, 223, 1540, 3710, 1680, -459, 339, -172
1109, 163, 958, 221, 1610, 3570, 1750, -469, 331, -168
1110, 168, 960, 217, 1610, 3290, 1750, -477, 334, -162
1111, 167, 961, 218, 1470, 3220, 1890, -462, 334, -169
1112, 175, 962, 216, 1540, 3850, 2030, -472, 327, -172
1113, 177, 957, 211, 1750, 4690, 2100, -466, 348, -160
1114, 185, 940, 221, 1750, 5180, 2170, -460, 333, -165
1115, 185, 936, 181, 2240, 6370, 2310, -466, 337, -172
1116, 167, 984, 217, 2590, 7000, 2380, -466, 340, -163
1117, 177, 995, 218, 1680, 5180, 2170, -465, 342, -163
1118, 151, 958, 206, 1680, 6020, 2170, -475, 342, -162
1119, 160, 929, 213, 1610, 6160, 2170, -480, 340, -163
1120, 203, 932, 212, 1470, 5810, 2100, -474, 337, -172
1121, 206, 942, 225, 1400, 5390, 1960, -471, 340, -165
1122, 204, 970, 225, 2030, 8120, 1750, -463, 330, -168
1123, 184, 963, 223, 2310, 9170, 1610, -463, 334, -166
1124, 188, 943, 221, 2100, 8330, 1330, -471, 336, -171
1125, 177, 940, 225, 1680, 6580, 910, -463, 333, -160
1126, 175, 975, 238, 350, 2800, 70, -469, 330, -171
1127, 182, 974, 238, -140, 1960, -420, -463, 337, -169
1128, 204, 952, 237, -490, 1610, -910, -472, 337, -169
1129, 210, 942, 229, -560, 1960, -1190, -466, 340, -163
1130, 226, 937, 222, -630, 2310, -1540, -463, 339, -174
1131, 209, 948, 225, -490, 3290, -2100, -474, 349, -183
1132, 195, 962, 226, -700, 2660, -2660, -465, 331, -169
1133, 184, 966, 226, -980, 1890, -3080, -472, 331, -162
1134, 185, 966, 222, -1540, 980, -3500, -460, 340, -157
1135, 190, 956, 221, -2030, 350, -3780, -462, 336, -168
1136, 201, 954, 220, -2380, 1190, -4200, -466, 340, -166
1137, 196, 959, 220, -2310, 2170, -4270, -468, 336, -168
1138, 204, 957, 220, -2170, 2870, -4410, -460, 337, -162
1139, 197, 956, 220, -1820, 4200, -4410, -463, 337, -163
1140, 176, 958, 218, -1400, 6720, -4130, -468, 333, -172
1141, 163, 958, 219, -1330, 7350, -3990, -468, 340, -163
1142, 160, 959, 222, -1330, 7420, -3920, -460, 336, -172
1143, 154, 964, 223, -1330, 7700, -3850, -468, 343, -157
1144, 160, 967, 224, -1330, 8050, -3780, -465, 334, -166
1145, 153, 962, 226, -1050, 8610, -3290, -460, 333, -166
1146, 145, 961, 226, -840, 8750, -2940, -465, 328, -165
1147, 138, 958, 230, -630, 9380, -2590, -463, 348, -166
1148, 125, 959, 233, -280, 9660, -2170, -456, 333, -166
1149, 99, 959, 240, 0, 9590, -1680, -454, 330, -181
1150, 68, 965, 250, 70, 6300, -840, -471, 331, -166
1151, 66, 968, 256, 140, 4270, -490, -460, 339, -168
1152, 81, 964, 262, 70, 2800, -70, -463, 328, -168
1153, 88, 961, 263, 350, 2380, 420, -454, 340, -166
1154, 104, 956, 265, 910, 1820, 1680, -445, 327, -168
1155, 112, 955, 269, 1190, 1960, 2450, -459, 336, -160
1156, 111, 956, 270, 1680, 2240, 3150, -456, 334, -163
1157, 110, 953, 270, 2170, 2590, 3710, -453, 333, -165
1158, 108, 950, 268, 2590, 2660, 4200, -462, 328, -172
1159, 111, 952, 263, 2940, 1190, 4760, -465, 340, -171
1160, 111, 959, 261, 2730, -560, 4900, -466, 339, -162
1161, 119, 963, 261, 2590, -2170, 4970, -466, 337, -159
1162, 118, 962, 263, 2380, -3780, 5110, -454, 337, -162
1163, 116, 954, 265, 2310, -5180, 5250, -466, 340, -162
1164, 118, 945, 267, 2380, -7420, 5670, -465, 333, -160
1165, 121, 947, 268, 2660, -8050, 5880, -462, 345, -165
1166, 120, 951, 269, 2870, -8750, 6160, -468, 337, -159
1167, 112, 955, 270, 2940, -9590, 6580, -468, 334, -163
1168, 116, 954, 271, 3430, -10570, 7560, -460, 337, -168
1169, 119, 951, 267, 3640, -10430, 8120, -478, 337, -165
1170, 123, 950, 264, 3990, -10220, 8680, -471, 345, -166
1171, 138, 946, 261, 4410, -9870, 9240, -468, 348, -165
1172, 142, 949, 255, 4760, -9310, 9800, -469, 339, -168
1173, 165, 951, 244, 5740, -7490, 10850, -466, 348, -166
1174, 173, 951, 239, 6230, -6300, 11270, -465, 343, -166
1175, 179, 954, 231, 6440, -5390, 11690, -475, 331, -171
1176, 182, 956, 225, 6580, -4620, 11970, -462, 340, -165
1177, 186, 957, 218, 6720, -4200, 12180, -475, 345, -166
1178, 195, 956, 208, 6790, -3360, 12460, -483, 348, -157
1179, 200, 956, 203, 6790, -3080, 12460, -475, 348, -154
1180, 211, 955, 198, 6860, -2520, 12390, -478, 346, -165
1181, 220, 956, 192, 7000, -1890, 12390, -474, 348, -156
1182, 235, 956, 185, 7070, 70, 12390, -471, 343, -166
1183, 242, 955, 181, 7140, 1540, 12460, -480, 345, -151
1184, 241, 954, 176, 7210, 3080, 12390, -477, 343, -157
1185, 246, 955, 172, 7210, 4340, 12250, -477, 343, -147
1186, 247, 959, 168, 7140, 5180, 12040, -481, 348, -151
1187, 254, 961, 160, 6790, 5670, 11270, -468, 342, -157
1188, 254, 960, 160, 6440, 5460, 10850, -475, 352, -157
1189, 250, 958, 159, 6160, 4900, 10290, -477, 342, -150
1190, 250, 956, 161, 5670, 3920, 9590, -483, 348, -156
1191, 253, 957, 162, 5110, 2730, 8890, -480, 357, -145
1192, 266, 960, 165, 3920, 420, 7350, -483, 346, -154
1193, 271, 957, 170, 3360, -560, 6580, -474, 351, -151
1194, 272, 952, 173, 2940, -1400, 5740, -480, 354, -153
1195, 276, 950, 180, 2450, -1820, 5040, -481, 343, -147
1196, 275, 947, 191, 1890, -1750, 3920, -474, 352, -145
1197, 275, 946, 194, 1750, -1260, 3430, -474, 346, -151
1198, 265, 947, 198, 1540, -630, 3010, -478, 346, -148
1199, 253, 949, 202, 1400, -350, 2730, -480, 345, -147
1200, 239, 950, 205, 1120, -560, 2450, -483, 352, -145
1201, 223, 949, 212, 840, -1400, 2030, -478, 358, -151
1202, 215, 948, 214, 770, -1820, 1890, -474, 349, -145
1203, 210, 948, 217, 630, -2660, 1820, -477, 352, -136
1204, 205, 948, 218, 630, -3430, 1750, -492, 348, -153
1205, 200, 950, 220, 630, -5390, 1890, -478, 348, -151
1206, 188, 951, 225, 560, -6440, 2030, -475, 352, -141
1207, 185, 951, 226, 560, -7420, 2170, -481, 345, -141
1208, 183, 950, 227, 560, -8330, 2380, -478, 358, -147
1209, 190, 948, 225, 630, -9030, 2590, -472, 345, -139
1210, 200, 949, 222, 770, -9940, 3080, -483, 354, -147
1211, 204, 950, 220, 910, -10080, 3430, -495, 349, -150
1212, 207, 950, 219, 1120, -9590, 3850, -484, 345, -150
1213, 213, 948, 217, 1400, -9170, 4200, -486, 351, -147
1214, 225, 944, 212, 1680, -8120, 4550, -478, 346, -148
1215, 243, 943, 198, 2310, -5460, 4970, -490, 352, -145
1216, 246, 945, 192, 2590, -4690, 5110, -484, 349, -145
1217, 247, 947, 188, 2800, -4270, 5180, -480, 354, -142
1218, 244, 953, 186, 2730, -4130, 5250, -483, 352, -150
1219, 237, 958, 184, 2590, -4480, 5320, -489, 352, -142
1220, 232, 953, 182, 2450, -4550, 5320, -483, 357, -145
1221, 234, 951, 180, 2380, -4620, 5250, -490, 352, -156
1222, 240, 949, 177, 2450, -4620, 5250, -487, 352, -142
1223, 247, 947, 176, 2590, -4200, 5250, -495, 357, -142
1224, 246, 949, 176, 2730, -3850, 5390, -490, 352, -150
1225, 246, 949, 177, 2870, -3710, 5390, -489, 351, -141
1226, 248, 950, 176, 2940, -3500, 5390, -493, 346, -148
1227, 249, 952, 175, 2940, -3360, 5390, -492, 355, -136
1228, 252, 953, 174, 2800, -3150, 5320, -490, 351, -138
1229, 254, 952, 174, 2520, -3500, 5180, -493, 351, -139
1230, 260, 949, 174, 2380, -3710, 5040, -484, 348, -141
1231, 264, 948, 176, 2310, -3780, 4900, -483, 340, -138
1232, 266, 947, 175, 2310, -3780, 4760, -501, 352, -148
1233, 270, 946, 175, 2170, -3640, 4410, -487, 364, -135
1234, 272, 947, 175, 2030, -3710, 4270, -492, 355, -133
1235, 277, 947, 176, 1960, -3430, 4130, -492, 358, -138
1236, 281, 947, 177, 1890, -3010, 3920, -490, 346, -148
1237, 283, 944, 175, 1820, -2310, 3710, -498, 358, -136
1238, 297, 944, 171, 1750, -910, 3220, -489, 354, -139
1239, 304, 946, 167, 1680, -70, 3010, -487, 363, -138
1240, 299, 946, 165, 1610, 700, 2800, -498, 357, -141
1241, 290, 947, 163, 1470, 1050, 2520, -498, 358, -133
1242, 282, 947, 162, 1260, 630, 2030, -496, 357, -135
1243, 297, 946, 157, 560, -700, 910, -496, 355, -144
1244, 307, 948, 154, 210, -700, 420, -495, 360, -148
1245, 309, 949, 155, -70, -560, 0, -492, 358, -135
1246, 301, 948, 157, -280, -490, -420, -486, 358, -141
1247, 295, 945, 160, -770, -560, -1120, -496, 357, -135
1248, 287, 947, 165, -910, -70, -1330, -496, 355, -142
1249, 280, 948, 166, -980, 700, -1610, -498, 357, -135
1250, 271, 949, 165, -980, 1050, -1750, -504, 351, -141
1251, 265, 949, 167, -1050, 980, -1820, -498, 363, -145
1252, 255, 949, 174, -910, 1470, -1680, -495, 358, -145
1253, 239, 951, 178, -840, 1820, -1540, -490, 354, -147
1254, 222, 952, 183, -840, 1470, -1330, -498, 348, -139
1255, 227, 950, 186, -630, 1050, -1120, -495, 357, -141
1256, 232, 950, 187, -490, 1330, -770, -492, 349, -147
1257, 238, 944, 186, -140, 1610, -350, -490, 352, -150
1258, 245, 944, 187, 70, 1610, -140, -489, 354, -136
1259, 249, 948, 188, 140, 1750, 0, -492, 360, -138
1260, 256, 950, 187, 280, 1960, 140, -502, 355, -148
1261, 258, 950, 189, 420, 3360, 490, -496, 355, -139
1262, 274, 943, 188, 490, 4480, 560, -487, 357, -138
1263, 285, 940, 183, 840, 6090, 630, -493, 351, -141
1264, 289, 939, 179, 980, 7490, 630, -493, 358, -147
1265, 298, 937, 177, 1190, 8820, 560, -496, 354, -136
1266, 291, 944, 172, 1470, 11270, 350, -499, 342, -142
1267, 290, 947, 173, 1470, 11900, 140, -493, 354, -138
1268, 286, 952, 171, 1470, 12600, 0, -487, 361, -136
1269, 282, 956, 168, 1260, 12670, -210, -495, 360, -138
1270, 284, 952, 165, 980, 12810, -420, -496, 358, -136
1271, 259, 947, 163, 490, 11830, -1120, -490, 361, -132
1272, 256, 944, 164, 140, 10430, -1540, -495, 352, -142
1273, 261, 945, 166, -140, 9170, -1960, -492, 352, -130
1274, 269, 949, 167, -350, 8260, -2520, -489, 351, -142
1275, 274, 953, 169, -840, 7350, -3150, -484, 360, -142
1276, 277, 950, 172, -1190, 7070, -3430, -493, 360, -144
1277, 276, 948, 175, -1330, 6930, -3640, -490, 351, -151
1278, 273, 946, 179, -1470, 7070, -3920, -486, 360, -138
1279, 270, 943, 184, -1540, 7490, -4130, -489, 351, -141
1280, 278, 944, 188, -1330, 9730, -4270, -495, 360, -133
1281, 274, 943, 188, -1050, 11130, -4200, -495, 358, -139
1282, 265, 942, 192, -840, 12250, -3990, -492, 352, -147
1283, 258, 942, 195, -560, 13370, -3850, -484, 361, -142
1284, 243, 945, 198, -350, 14210, -3640, -481, 351, -141
1285, 204, 955, 202, -140, 14280, -3290, -478, 360, -132
1286, 253, 949, 201, 140, 15540, -2940, -477, 352, -144
1287, 247, 960, 203, 490, 17850, -2870, -489, 352, -139
1288, 279, 947, 199, 630, 18480, -2520, -481, 358, -129
1289, 294, 938, 191, 1540, 22890, -1750, -484, 360, -136
1290, 233, 940, 196, 2240, 25830, -1400, -492, 355, -135
1291, 183, 927, 203, 2310, 23870, -1190, -483, 360, -133
1292, 194, 932, 218, 2520, 22540, -630, -477, 357, -141
1293, 228, 982, 216, 3360, 27230, 630, -472, 349, -153
1294, 229, 972, 216, 4760, 35560, 2660, -481, 361, -141
1295, 230, 929, 214, 5670, 37380, 3430, -487, 355, -138
1296, 272, 905, 202, 6580, 39690, 3920, -475, 351, -130
1297, 300, 905, 194, 7770, 43820, 4550, -486, 348, -130
1298, 316, 908, 194, 9030, 49700, 5250, -475, 360, -130
1299, 233, 964, 194, 9870, 54110, 6020, -471, 352, -132
1300, 261, 993, 191, 9240, 52710, 5880, -480, 354, -127
1301, 273, 1000, 189, 8820, 54670, 5740, -463, 358, -118
1302, 259, 971, 190, 8470, 55720, 5530, -481, 366, -133
1303, 260, 907, 190, 8610, 56490, 4830, -472, 355, -129
1304, 258, 913, 188, 8960, 56700, 4480, -469, 364, -123
1305, 251, 926, 191, 9170, 56910, 4340, -477, 354, -118
1306, 252, 934, 203, 9380, 57400, 4340, -472, 358, -115
1307, 220, 949, 210, 9660, 59360, 4550, -466, 361, -117
1308, 126, 979, 208, 8050, 49210, 3920, -475, 358, -117
1309, 173, 988, 211, 7070, 45500, 3290, -477, 360, -109
1310, 236, 1003, 206, 6370, 45920, 3010, -466, 354, -111
1311, 230, 989, 204, 6370, 48510, 3150, -462, 351, -123
1312, 205, 942, 205, 6370, 48090, 3290, -469, 363, -112
1313, 237, 893, 201, 6580, 42420, 3010, -468, 361, -99
1314, 226, 925, 198, 7000, 43680, 3010, -465, 352, -94
1315, 242, 951, 201, 7210, 44870, 2870, -462, 357, -108
1316, 242, 968, 208, 7140, 46620, 2800, -459, 354, -96
1317, 310, 985, 203, 7210, 52780, 2730, -460, 355, -103
1318, 407, 946, 205, 8120, 59920, 3220, -457, 345, -96
1319, 388, 907, 206, 9870, 70070, 4270, -451, 360, -103
1320, 398, 883, 206, 11760, 80080, 5460, -456, 354, -91
1321, 294, 886, 195, 13580, 87990, 6720, -456, 364, -84
1322, 87, 949, 201, 14420, 86520, 6720, -444, 361, -79
1323, -16, 982, 207, 13230, 78400, 5810, -451, 358, -84
1324, -276, 1022, 217, 9800, 57750, 3780, -442, 367, -78
1325, -340, 1038, 224, 5390, 29050, 700, -451, 360, -90
1326, -254, 1037, 241, 770, 1960, -2240, -453, 364, -75
1327, 11, 1039, 235, -4620, -19530, -4270, -459, 370, -85
1328, -5, 981, 236, -5810, -27790, -4060, -448, 360, -72
1329, 61, 897, 254, -6650, -40040, -3780, -451, 352, -87
1330, 153, 886, 261, -6090, -43680, -3360, -450, 366, -84
1331, 309, 954, 244, -2100, -21420, -1260, -447, 364, -84
1332, 305, 933, 242, -1330, -14210, -280, -445, 370, -87
1333, 303, 932, 238, -770, -9030, 700, -463, 364, -85
1334, 286, 976, 227, -560, -6370, 1610, -447, 352, -82
1335, 233, 989, 223, -350, -4690, 2170, -453, 363, -91
1336, 154, 914, 230, 490, -350, 2170, -466, 349, -91
1337, 178, 934, 218, 700, -840, 1890, -454, 358, -81
1338, 177, 968, 205, 630, -1820, 1890, -448, 358, -82
1339, 232, 962, 204, 630, -2100, 2030, -451, 358, -82
1340, 230, 954, 207, 490, -1470, 2380, -448, 360, -87
1341, 198, 974, 198, 350, -70, 2450, -447, 355, -82
1342, 209, 958, 196, 350, -70, 2030, -454, 355, -85
1343, 227, 934, 195, 280, -1190, 1470, -463, 361, -79
1344, 274, 934, 188, 280, -1890, 700, -456, 367, -88
1345, 342, 958, 182, -70, -1190, -980, -447, 363, -84
1346, 342, 954, 181, -140, 490, -1890, -448, 360, -79
1347, 320, 957, 179, -350, 2030, -2870, -453, 360, -78
1348, 286, 962, 177, -840, 1330, -3640, -453, 364, -87
1349, 260, 950, 181, -1190, 210, -4690, -456, 372, -81
1350, 279, 930, 189, -1260, 280, -6790, -444, 357, -87
1351, 304, 944, 188, -1190, 1330, -7560, -456, 358, -79
1352, 293, 958, 186, -1120, 3080, -7980, -448, 361, -87
1353, 279, 957, 192, -1050, 4130, -8190, -456, 361, -85
1354, 223, 963, 198, -1260, 4690, -8890, -450, 355, -90
1355, 187, 960, 208, -1540, 4060, -9100, -456, 358, -87
1356, 189, 950, 210, -1540, 4060, -9240, -450, 352, -88
1357, 174, 948, 213, -1610, 3150, -9240, -451, 358, -78
1358, 167, 953, 218, -1610, 1960, -9100, -451, 349, -87
1359, 158, 957, 231, -1540, 1260, -8750, -451, 351, -85
1360, 169, 960, 234, -1400, 1680, -8610, -454, 343, -87
1361, 172, 957, 234, -1400, 2520, -8470, -454, 352, -73
1362, 165, 952, 232, -1470, 1960, -8260, -444, 351, -81
1363, 151, 949, 235, -1610, 560, -8050, -451, 349, -81
1364, 150, 951, 244, -1680, -2240, -7910, -445, 348, -91
1365, 167, 954, 247, -1610, -2310, -7840, -442, 354, -82
1366, 175, 958, 246, -1540, -1540, -7770, -448, 357, -105
1367, 191, 956, 243, -1400, -350, -7560, -451, 355, -87
1368, 190, 954, 238, -1330, 1330, -7000, -453, 352, -82
1369, 176, 950, 234, -1120, 1680, -6790, -453, 360, -90
1370, 162, 954, 233, -910, 2380, -6650, -438, 351, -85
1371, 151, 958, 230, -910, 2310, -6580, -447, 355, -81
1372, 132, 961, 225, -910, 1680, -6580, -442, 343, -85
1373, 72, 961, 227, -1330, -3640, -5740, -439, 349, -85
1374, 18, 965, 233, -1610, -6650, -5040, -441, 352, -85
1375, 24, 964, 239, -1680, -8260, -3990, -448, 342, -85
1376, 35, 968, 243, -1470, -7630, -2660, -444, 343, -90
1377, 124, 972, 240, -770, -3430, -1190, -439, 355, -96
1378, 134, 993, 228, 630, 2240, 1330, -439, 352, -93
1379, 113, 963, 224, 560, 70, 2030, -438, 352, -87
1380, 98, 941, 220, 420, -2800, 2310, -447, 355, -97
1381, 55, 941, 218, 140, -6370, 2170, -441, 357, -87
1382, 40, 943, 223, -1400, -17640, 1190, -448, 354, -87
1383, 106, 962, 234, -2450, -23660, 210, -445, 358, -94
1384, 181, 978, 232, -3360, -27440, -700, -436, 352, -87
1385, 240, 974, 233, -3850, -28700, -1680, -453, 360, -88
1386, 247, 957, 236, -4200, -29890, -2520, -441, 354, -94
1387, 269, 927, 244, -4900, -33390, -4270, -451, 354, -88
1388, 278, 939, 245, -4690, -31920, -4900, -441, 357, -94
1389, 294, 945, 248, -4550, -28910, -5320, -444, 346, -87
1390, 276, 945, 250, -4200, -25480, -5390, -451, 345, -94
1391, 251, 947, 248, -4060, -23450, -5600, -444, 352, -97
1392, 210, 955, 243, -3990, -21770, -6160, -441, 346, -112
1393, 200, 949, 242, -3920, -20930, -6370, -441, 360, -103
1394, 198, 946, 238, -3920, -20160, -6580, -450, 352, -105
1395, 190, 951, 235, -3710, -19740, -6650, -447, 357, -93
1396, 189, 954, 228, -3920, -20370, -6930, -450, 355, -99
1397, 175, 957, 223, -4060, -21700, -7210, -448, 348, -103
1398, 163, 958, 221, -4480, -23590, -7490, -447, 352, -106
1399, 164, 959, 221, -4900, -25760, -7980, -442, 348, -111
1400, 164, 961, 221, -5320, -27860, -8680, -451, 351, -115
1401, 200, 969, 220, -6370, -31850, -9870, -447, 358, -123
1402, 214, 971, 219, -6720, -32830, -10150, -441, 348, -114
1403, 208, 972, 220, -7000, -33180, -10220, -448, 345, -118
1404, 188, 970, 220, -7280, -33810, -10150, -438, 351, -118
1405, 169, 965, 219, -7630, -34650, -10080, -447, 345, -106
1406, 154, 957, 221, -7840, -35420, -9590, -450, 345, -126
1407, 160, 950, 226, -7490, -33880, -9170, -457, 348, -117
1408, 175, 941, 232, -6580, -30380, -8540, -451, 351, -123
1409, 177, 938, 233, -5530, -25760, -7910, -447, 346, -124
1410, 182, 940, 232, -3500, -16590, -6370, -448, 349, -130
1411, 189, 962, 221, -2660, -12390, -5600, -450, 351, -117
1412, 182, 970, 215, -2100, -8400, -4760, -453, 352, -121
1413, 165, 973, 211, -1750, -5600, -4200, -457, 337, -121
1414, 158, 971, 208, -1540, -3780, -3710, -450, 348, -120
1415, 150, 963, 201, -1190, -1750, -3010, -450, 342, -123
1416, 144, 962, 199, -1050, -1470, -2800, -457, 346, -114
1417, 141, 961, 198, -910, -1890, -2590, -448, 334, -132
1418, 136, 964, 196, -840, -3010, -2590, -450, 346, -126
1419, 130, 970, 193, -1050, -4620, -2590, -457, 343, -120
1420, 108, 975, 193, -2170, -11760, -2940, -454, 354, -124
1421, 112, 975, 194, -2800, -15610, -3290, -448, 346, -123
1422, 118, 978, 196, -3640, -19250, -3640, -447, 348, -121
1423, 125, 973, 198, -4340, -23310, -3920, -456, 345, -135
1424, 157, 963, 201, -5180, -28280, -4690, -448, 343, -133
1425, 164, 959, 208, -5530, -29750, -5040, -454, 345, -129
1426, 160, 959, 212, -5880, -31990, -5460, -444, 339, -130
1427, 168, 957, 217, -6160, -33600, -5740, -444, 340, -142
1428, 180, 955, 222, -6440, -34300, -5880, -453, 345, -132
1429, 185, 954, 235, -6510, -34230, -6090, -456, 342, -130
1430, 188, 956, 240, -6440, -33040, -6020, -457, 342, -129
1431, 200, 954, 242, -6230, -31150, -5950, -457, 343, -147
1432, 202, 950, 247, -5880, -28210, -5810, -451, 343, -142
1433, 209, 947, 252, -5390, -25130, -5530, -445, 334, -142
1434, 197, 945, 258, -4130, -19040, -4970, -459, 342, -145
1435, 178, 952, 255, -3710, -17150, -4620, -451, 340, -147
1436, 172, 958, 253, -3500, -15960, -4410, -453, 339, -141
1437, 168, 960, 253, -3360, -15050, -4130, -462, 346, -144
1438, 166, 958, 254, -3010, -12600, -3640, -456, 340, -145
1439, 157, 956, 256, -2800, -11620, -3360, -456, 331, -145
1440, 153, 954, 257, -2660, -10710, -3080, -459, 340, -148
1441, 149, 955, 258, -2380, -10290, -2730, -460, 342, -153
1442, 145, 951, 258, -2030, -9870, -2450, -459, 343, -150
1443, 144, 952, 256, -1610, -10080, -2100, -453, 339, -147
1444, 151, 956, 255, -1540, -10360, -1890, -453, 342, -148
1445, 156, 958, 257, -1540, -10290, -1750, -460, 339, -144
1446, 167, 959, 259, -1470, -9940, -1610, -456, 340, -150
1447, 173, 959, 261, -1470, -8960, -1470, -454, 349, -148
1448, 184, 957, 263, -1260, -6580, -1050, -457, 351, -151
1449, 189, 955, 264, -1050, -4830, -910, -459, 340, -147
1450, 182, 953, 265, -700, -3430, -700, -453, 337, -145
1451, 182, 952, 264, -560, -2030, -560, -465, 343, -154
1452, 176, 949, 262, -420, -1120, -630, -460, 339, -139
1453, 174, 950, 260, -420, -1330, -770, -453, 342, -145
1454, 181, 950, 262, -420, -910, -910, -465, 345, -145
1455, 182, 952, 265, -350, -700, -910, -466, 346, -153
1456, 188, 953, 265, -280, -70, -910, -448, 337, -148
1457, 187, 954, 269, -350, 1540, -980, -457, 349, -148
1458, 181, 955, 272, -420, 2170, -1050, -456, 340, -154
1459, 180, 953, 274, -420, 2870, -1050, -451, 343, -148
1460, 178, 946, 277, -490, 2940, -1120, -459, 331, -150
1461, 190, 937, 285, -490, 3500, -1330, -459, 337, -142
1462, 203, 930, 293, -70, 6230, -1400, -453, 337, -147
1463, 211, 929, 298, 280, 8120, -1400, -457, 340, -141
1464, 204, 930, 301, 560, 10220, -1260, -456, 342, -151
1465, 211, 928, 302, 840, 11830, -1330, -459, 336, -144
1466, 206, 932, 308, 1330, 15820, -1260, -454, 336, -150
1467, 192, 937, 312, 1470, 17220, -1260, -457, 342, -147
1468, 184, 933, 315, 1400, 17640, -1400, -445, 346, -144
1469, 173, 928, 320, 1330, 17640, -1540, -451, 342, -148
1470, 174, 920, 320, 1190, 17710, -1610, -456, 339, -147
1471, 175, 913, 329, 840, 17290, -1960, -460, 330, -141
1472, 186, 907, 335, 840, 17710, -2170, -454, 334, -145
1473, 208, 902, 335, 980, 19390, -2240, -448, 339, -141
1474, 213, 902, 338, 1190, 21630, -2170, -453, 334, -141
1475, 238, 902, 341, 1750, 24640, -2030, -459, 334, -145
1476, 248, 899, 351, 3150, 32970, -1470, -450, 337, -138
1477, 237, 894, 346, 3850, 36890, -980, -451, 342, -141
1478, 243, 887, 344, 4690, 41300, -700, -444, 331, -136
1479, 236, 878, 344, 5530, 45570, -630, -447, 327, -130
1480, 230, 871, 330, 7770, 52850, -280, -444, 330, -130
1481, 226, 889, 334, 9100, 56910, -140, -448, 337, -135
1482, 199, 915, 322, 10290, 59430, 140, -444, 334, -133
1483, 173, 938, 306, 10780, 58660, 0, -444, 333, -130
1484, 180, 945, 297, 10850, 57330, -350, -451, 339, -127
1485, 178, 955, 285, 10710, 55860, -1050, -435, 345, -117
1486, 177, 950, 271, 10430, 55370, -1190, -439, 339, -120
1487, 168, 947, 262, 10150, 55580, -1260, -433, 336, -120
1488, 133, 949, 250, 9520, 54810, -1330, -432, 340, -123
1489, 118, 949, 236, 8680, 52430, -1680, -430, 342, -114
1490, 132, 952, 248, 7910, 51240, -2380, -432, 339, -109
1491, 161, 962, 245, 7770, 50470, -2660, -430, 327, -115
1492, 204, 987, 252, 7840, 51380, -2660, -435, 328, -111
1493, 215, 1017, 250, 7910, 52710, -2170, -427, 334, -108
1494, 177, 996, 234, 7630, 52570, -1050, -421, 334, -105
1495, 147, 945, 226, 7770, 53970, -700, -426, 339, -106
1496, 93, 921, 211, 8050, 54530, -490, -423, 330, -105
1497, 82, 933, 200, 8470, 54110, -420, -406, 330, -102
1498, 62, 966, 189, 8750, 53760, -140, -415, 333, -96
1499, 27, 1051, 186, 8820, 50960, 210, -417, 342, -97
1500, 15, 1064, 180, 7910, 44520, -210, -421, 327, -102
1501, 41, 1056, 178, 6440, 36190, -910, -423, 339, -81
1502, 78, 1029, 177, 5040, 29960, -1400, -423, 340, -94
1503, 77, 1002, 168, 3990, 25830, -1540, -420, 343, -85
1504, 46, 953, 183, 2240, 19390, -1470, -421, 333, -93
1505, 53, 940, 186, 1750, 17710, -1400, -423, 334, -85
1506, 63, 940, 202, 1540, 17430, -1330, -417, 333, -97
1507, 77, 942, 212, 1750, 17780, -1120, -414, 327, -84
1508, 98, 942, 223, 2450, 18620, -420, -421, 330, -81
1509, 83, 945, 223, 2940, 18900, 0, -424, 339, -84
1510, 52, 960, 210, 3430, 17570, 140, -409, 331, -85
1511, 48, 971, 207, 3640, 13930, -140, -418, 331, -81
1512, 56, 976, 200, 3920, 11340, -490, -414, 331, -75
1513, 55, 1018, 166, 3990, 6790, -910, -417, 331, -79
1514, 58, 1048, 166, 3290, 2730, -1400, -415, 331, -84
1515, 81, 1062, 163, 2380, -980, -1750, -414, 331, -72
1516, 98, 1056, 162, 1540, -3430, -2030, -417, 334, -94
1517, 116, 1023, 167, 1120, -4340, -2520, -412, 334, -76
1518, 109, 950, 161, 560, -4410, -2730, -423, 337, -79
1519, 98, 938, 168, 350, -5040, -2940, -417, 331, -87
1520, 93, 941, 177, 0, -5950, -3290, -421, 330, -88
1521, 73, 953, 181, -490, -7490, -3570, -418, 327, -73
1522, 88, 982, 205, -1470, -10430, -4410, -418, 331, -87
1523, 89, 987, 219, -1960, -11200, -4760, -414, 330, -76
1524, 88, 980, 224, -2450, -12320, -5110, -414, 336, -91
1525, 101, 967, 236, -2870, -13300, -5530, -418, 337, -102
1526, 107, 949, 244, -3220, -13580, -5880, -409, 325, -91
1527, 113, 924, 256, -3570, -13090, -6440, -417, 334, -87
1528, 88, 917, 262, -3780, -12880, -6860, -414, 339, -96
1529, 47, 904, 268, -4130, -15330, -7560, -414, 327, -90
1530, 82, 889, 284, -4550, -18620, -8400, -411, 333, -94
1531, 115, 895, 295, -4060, -16100, -9100, -412, 325, -91
1532, 135, 947, 301, -3640, -13510, -9100, -411, 330, -90
1533, 132, 971, 305, -3500, -11550, -8960, -412, 325, -97
1534, 123, 991, 303, -3500, -10500, -8890, -418, 325, -96
1535, 121, 1009, 299, -3640, -9590, -8890, -414, 346, -99
1536, 78, 1001, 276, -3920, -8960, -9100, -409, 330, -97
1537, 91, 980, 272, -3780, -9800, -9380, -414, 337, -97
1538, 107, 951, 276, -3150, -8960, -9660, -417, 339, -99
1539, 117, 937, 270, -2310, -7350, -9660, -406, 325, -91
1540, 139, 948, 273, -1190, -4200, -9310, -420, 331, -112
1541, 105, 1000, 248, 700, 4060, -8050, -411, 319, -97
1542, 55, 1021, 245, 770, 5740, -7560, -411, 330, -103
1543, 15, 1033, 234, 0, 5250, -7350, -406, 328, -97
1544, -13, 1058, 224, -1260, 3080, -7280, -408, 328, -94
1545, -14, 1078, 223, -4270, -2730, -7000, -400, 322, -108
1546, 0, 1026, 217, -5390, -5180, -6790, -406, 336, -105
1547, 15, 989, 221, -6160, -6790, -6440, -415, 330, -105
1548, 33, 989, 220, -6510, -7210, -5950, -415, 330, -97
1549, 46, 999, 223, -6580, -6580, -5250, -409, 322, -109
1550, 41, 1010, 228, -6090, -3080, -4200, -411, 324, -109
1551, 30, 1015, 237, -6020, -2170, -3780, -403, 324, -105
1552, 20, 1016, 237, -6020, -2170, -3500, -423, 328, -106
1553, 29, 990, 239, -5950, -2730, -3290, -403, 327, -117
1554, 52, 953, 237, -5530, -2800, -3220, -415, 334, -109
1555, 74, 896, 242, -3710, -1120, -2730, -409, 327, -108
1556, 69, 874, 237, -2660, -490, -2520, -409, 328, -108
1557, 52, 853, 245, -1890, -490, -2660, -415, 327, -115
1558, 41, 846, 247, -1470, -980, -2800, -403, 322, -108
1559, 39, 870, 251, -1120, -1890, -3220, -403, 330, -111
1560, 62, 937, 254, -980, -1610, -3290, -409, 324, -114
1561, 74, 989, 267, -980, -700, -3290, -406, 327, -111
1562, 93, 1061, 264, -910, 280, -3220, -403, 330, -115
1563, 86, 1154, 243, -910, 910, -3010, -399, 328, -105
1564, 56, 1168, 186, -1610, -490, -2870, -403, 328, -109
1565, 23, 1094, 154, -2030, -2590, -3010, -403, 327, -106
1566, 13, 1060, 132, -2730, -5460, -3150, -411, 327, -120
1567, 6, 1064, 116, -3360, -8050, -3150, -403, 321, -100
1568, -33, 1048, 118, -4340, -11200, -3150, -399, 321, -123
1569, -82, 953, 150, -8190, -23520, -4060, -409, 318, -120
1570, -41, 940, 167, -9940, -29960, -4620, -411, 319, -132
1571, 4, 925, 191, -10920, -32970, -4900, -406, 307, -115
1572, 22, 895, 213, -10990, -33390, -4900, -405, 322, -120
1573, 22, 857, 249, -10220, -32970, -4970, -412, 321, -117
1574, 34, 867, 292, -9450, -32340, -5110, -408, 327, -123
1575, 48, 893, 305, -8540, -31150, -5180, -408, 321, -124
1576, 56, 894, 311, -7490, -28980, -5110, -405, 322, -130
1577, 46, 882, 328, -6440, -26600, -4830, -405, 319, -132
1578, 29, 874, 343, -5600, -24430, -4340, -406, 322, -136
1579, 45, 881, 352, -5250, -22470, -3990, -408, 325, -132
1580, 71, 867, 371, -4480, -18760, -3360, -408, 316, -136
1581, 102, 862, 381, -2940, -13300, -2800, -414, 324, -136
1582, 150, 895, 392, -700, -7070, -2030, -414, 322, -139
1583, 237, 1016, 329, 5670, 9590, -140, -412, 337, -135
1584, 218, 1029, 301, 8890, 17920, 910, -409, 324, -133
1585, 150, 1014, 255, 10850, 21840, 1680, -411, 327, -130
1586, 63, 1020, 209, 11340, 21770, 1960, -418, 316, -120
1587, -16, 1051, 158, 8610, 12880, 1190, -408, 318, -124
1588, -106, 1135, 151, 6090, 6510, 490, -408, 310, -124
1589, -102, 1122, 155, 3220, -980, -140, -405, 325, -136
1590, -57, 1082, 155, 490, -8260, -490, -412, 331, -120
1591, -4, 1042, 163, -1400, -13020, -490, -417, 316, -126
1592, 45, 965, 204, -2800, -15750, 770, -406, 315, -126
1593, 40, 938, 224, -2520, -14490, 1330, -402, 333, -132
1594, 22, 915, 239, -2030, -12810, 1750, -409, 316, -127
1595, 15, 915, 246, -1400, -11200, 1890, -406, 313, -142
1596, 34, 923, 258, -770, -9100, 2030, -411, 318, -130
1597, 65, 913, 262, 420, -4550, 2660, -415, 318, -133
1598, 54, 914, 269, 560, -3080, 3080, -415, 328, -129
1599, 34, 932, 267, 210, -3640, 3570, -423, 324, -139
1600, 20, 970, 271, -420, -4620, 3850, -408, 333, -130
1601, 6, 1008, 276, -1960, -7840, 4410, -415, 325, -124
1602, -1, 1000, 286, -2660, -9310, 4550, -411, 325, -135
1603, 12, 986, 292, -3500, -10780, 4620, -420, 321, -132
1604, 44, 975, 285, -4060, -12040, 4760, -408, 319, -139
1605, 80, 944, 291, -3920, -11550, 5040, -426, 327, -126
1606, 100, 885, 299, -2380, -7490, 5810, -420, 328, -142
1607, 100, 891, 310, -1330, -5390, 6160, -421, 324, -133
1608, 95, 907, 302, -70, -2870, 6440, -417, 330, -133
1609, 96, 912, 304, 980, -840, 6580, -423, 328, -129
1610, 89, 908, 304, 1680, 490, 6650, -417, 334, -144
1611, 104, 943, 308, 2170, 1400, 6650, -433, 327, -132
1612, 103, 949, 308, 2030, 2310, 6580, -420, 336, -144
1613, 90, 930, 313, 1820, 2800, 6370, -418, 328, -141
1614, 94, 906, 330, 1610, 2940, 6160, -424, 331, -127
1615, 139, 885, 363, 2310, 6440, 5950, -426, 336, -132
1616, 166, 864, 369, 3710, 11200, 6020, -418, 340, -136
1617, 185, 818, 383, 5600, 16940, 6300, -423, 336, -135
1618, 198, 787, 381, 7560, 22470, 6580, -421, 339, -144
1619, 196, 783, 376, 9170, 27300, 6930, -421, 333, -120
1620, 182, 871, 357, 11340, 35140, 7490, -418, 339, -132
1621, 125, 929, 357, 11340, 36190, 7350, -417, 343, -127
1622, 90, 1025, 346, 10220, 34370, 7000, -418, 333, -129
1623, 92, 1089, 340, 8400, 30590, 6510, -417, 337, -118
1624, 61, 1083, 329, 6440, 26180, 5810, -415, 339, -123
1625, 42, 1138, 309, 2800, 17360, 4200, -415, 331, -117
1626, 89, 1142, 315, 1610, 14280, 3710, -424, 333, -114
1627, 120, 1082, 319, 1120, 12950, 3500, -417, 331, -112
1628, 139, 988, 323, 1050, 11830, 3500, -424, 340, -117
1629, 100, 871, 302, 2030, 13230, 3920, -423, 336, -115
1630, 71, 832, 299, 2520, 13580, 4060, -418, 330, -108
1631, 35, 799, 311, 2450, 12390, 3850, -424, 346, -127
1632, 11, 779, 326, 1680, 8400, 3500, -421, 343, -105
1633, 37, 786, 338, 840, 3640, 2940, -420, 340, -111
1634, 119, 787, 353, 1120, 1540, 1890, -420, 334, -115
1635, 151, 738, 366, 1960, 3920, 1400, -421, 340, -105
1636, 138, 711, 381, 2730, 6300, 910, -415, 339, -109
1637, 152, 734, 379, 2940, 7140, 560, -421, 336, -105
1638, 174, 800, 369, 3010, 8750, 350, -421, 340, -109
1639, 177, 972, 376, 3500, 15960, 490, -421, 331, -108
1640, 171, 1129, 383, 3080, 18270, 490, -417, 336, -108
1641, 139, 1248, 386, 2240, 19670, 280, -421, 337, -112
1642, 120, 1344, 378, 1120, 19180, -210, -411, 346, -109
1643, 222, 1416, 311, 280, 21420, -1050, -418, 336, -102
1644, 217, 1337, 283, 420, 23660, -840, -423, 337, -100
1645, 148, 1183, 267, 140, 22820, -700, -415, 334, -100
1646, 63, 981, 256, -1190, 17080, -770, -415, 336, -97
1647, 27, 797, 226, -2380, 9590, -1190, -421, 333, -96
1648, 0, 595, 230, -1470, 6160, -1540, -421, 337, -100
1649, -7, 591, 241, -490, 6510, -1610, -414, 328, -97
1650, -27, 676, 248, -140, 5040, -1820, -411, 331, -103
1651, -10, 825, 259, -700, 1820, -2170, -406, 333, -94
1652, 21, 981, 274, -2100, -1750, -2310, -421, 334, -106
1653, 85, 1242, 248, -6300, -6790, -2170, -412, 322, -106
1654, 79, 1301, 264, -9590, -10570, -2030, -424, 327, -111
1655, 17, 1227, 294, -13440, -16310, -2380, -414, 333, -96
1656, -5, 1079, 347, -16380, -22400, -3010, -409, 333, -102
1657, 192, 822, 418, -11550, -12320, -3500, -417, 321, -105
1658, 274, 705, 414, -3220, 5810, -2660, -412, 330, -120
1659, 301, 582, 392, 6230, 26880, -1190, -418, 322, -106
1660, 222, 528, 344, 13860, 42280, 210, -415, 328, -106
1661, 109, 585, 287, 17430, 46200, 910, -418, 328, -100
1662, -22, 958, 224, 14840, 34230, 1120, -397, 324, -99
1663, 18, 1149, 235, 10990, 26460, 1050, -412, 328, -99
1664, 31, 1263, 248, 6790, 20020, 980, -411, 330, -94
1665, 7, 1269, 258, 2240, 12880, 700, -414, 319, -88
1666, -21, 1154, 276, -1680, 6230, 140, -414, 328, -88
1667, 66, 947, 315, -4900, 1050, -420, -399, 327, -99
1668, 146, 852, 337, -3150, 5250, -280, -420, 333, -93
1669, 203, 753, 351, 630, 13020, 140, -402, 328, -96
1670, 248, 689, 351, 5180, 20440, 700, -402, 336, -96
1671, 269, 851, 281, 14000, 37310, 1960, -400, 325, -100
1672, 155, 1014, 256, 15960, 40950, 2030, -403, 336, -87
1673, 94, 1171, 242, 14770, 36540, 1400, -409, 330, -84
1674, 48, 1360, 179, 11620, 29820, 280, -405, 327, -91
1675, -19, 1502, 153, 6510, 19320, -840, -406, 325, -79
1676, -20, 1283, 147, -6160, -6790, -3500, -408, 315, -87
1677, 53, 1146, 137, -11620, -18130, -3990, -412, 327, -85
1678, 66, 1024, 143, -15330, -24640, -3920, -412, 324, -87
1679, -20, 848, 150, -17570, -28070, -3990, -405, 327, -91
1680, -89, 653, 185, -19180, -36190, -5460, -412, 327, -94
1681, -25, 470, 388, -17850, -38080, -6510, -405, 325, -97
1682, 278, 660, 444, -11340, -31150, -7000, -402, 328, -100
1683, 557, 881, 436, 910, -3570, -5810, -406, 324, -99
1684, 577, 932, 390, 14840, 33180, -3220, -415, 322, -99
1685, 74, 879, 253, 25970, 60410, -1120, -399, 327, -88
1686, -154, 1013, 181, 20020, 39830, -2310, -405, 324, -91
1687, -154, 1172, 155, 11340, 15960, -4130, -403, 333, -85
1688, -123, 1359, 121, 4410, 630, -5530, -402, 324, -88
1689, -60, 1405, 106, -210, -4690, -6370, -400, 327, -91
1690, -202, 1009, 184, -8820, -12740, -7700, -405, 324, -91
1691, -157, 866, 221, -14070, -25830, -8260, -403, 336, -97
1692, 42, 807, 288, -16240, -32060, -8260, -400, 322, -94
1693, 214, 727, 335, -13160, -23520, -7140, -402, 328, -106
1694, 333, 586, 373, 5250, 23730, -3290, -412, 322, -94
1695, 265, 569, 368, 15470, 42770, -1820, -402, 324, -93
1696, 266, 782, 301, 24430, 59080, -560, -409, 327, -91
1697, 265, 979, 249, 31150, 73430, 770, -399, 327, -79
1698, 166, 1106, 194, 34160, 81970, 1890, -400, 331, -79
1699, -99, 1304, 138, 24920, 57680, 1960, -394, 322, -72
1700, -141, 1417, 105, 15330, 30240, 770, -399, 330, -76
1701, -153, 1481, 56, 6440, 6650, -420, -396, 324, -70
1702, -185, 1396, 46, -140, -8400, -1540, -405, 324, -82
1703, -304, 1180, 54, -5880, -21560, -2870, -406, 324, -73
1704, -347, 846, 110, -16940, -56700, -6580, -396, 327, -76
1705, -185, 826, 168, -19810, -69580, -7770, -409, 328, -85
1706, 4, 802, 245, -18690, -70350, -7840, -397, 325, -94
1707, 148, 728, 289, -13650, -59710, -7210, -397, 331, -85
1708, 156, 613, 316, 980, -27090, -4830, -400, 327, -105
1709, 101, 604, 295, 7490, -13580, -3780, -400, 331, -87
1710, 99, 662, 255, 12320, -3990, -2940, -399, 330, -94
1711, 53, 727, 238, 15470, 2870, -2310, -402, 327, -94
1712, 34, 849, 234, 16590, 4830, -1820, -403, 328, -85
1713, 48, 1209, 193, 14070, 1750, -700, -397, 327, -78
1714, 14, 1403, 162, 10710, -1890, -140, -396, 333, -87
1715, -108, 1554, 131, 5460, -8750, 70, -396, 337, -90
1716, -217, 1547, 108, -1680, -21070, -210, -408, 337, -82
1717, -274, 1504, 97, -9800, -36680, -630, -409, 325, -79
1718, -185, 1244, 136, -23590, -61670, -560, -408, 331, -105
1719, -194, 950, 164, -27230, -67130, -70, -406, 337, -96
1720, -183, 633, 213, -28630, -70840, 490, -417, 324, -103
1721, -126, 465, 269, -27160, -71540, 910, -412, 327, -100
1722, 7, 466, 362, -14070, -49980, 2310, -412, 331, -108
1723, 275, 654, 448, -2730, -26810, 3710, -420, 319, -112
1724, 345, 779, 397, 9310, 1190, 5740, -415, 337, -109
1725, 315, 800, 351, 18200, 23660, 7560, -412, 333, -112
1726, 133, 811, 302, 21980, 33740, 8680, -414, 339, -108
1727, -22, 943, 201, 14280, 15050, 8890, -415, 339, -93
1728, -7, 1007, 185, 8470, 3430, 8820, -403, 336, -97
1729, -36, 1039, 178, 4130, -1470, 8750, -415, 325, -106
1730, -62, 1062, 163, 770, -3080, 9030, -415, 337, -96
1731, -105, 1123, 178, -2940, -4200, 9240, -418, 342, -87
1732, -134, 1139, 206, -14770, -21630, 8820, -406, 339, -93
1733, -50, 1102, 242, -20510, -32060, 8610, -409, 327, -100
1734, 102, 1039, 424, -22820, -37170, 8400, -418, 330, -102
1735, 346, 1169, 590, -18900, -35000, 8120, -423, 337, -99
1736, 672, 1413, 556, 10430, 29120, 11480, -418, 327, -105
1737, 559, 973, 333, 25480, 71610, 14210, -412, 331, -102
1738, 32, 426, 239, 31150, 84420, 14560, -414, 331, -100
1739, -378, 278, 168, 25550, 59850, 12390, -421, 331, -90
1740, -301, 612, 127, 15400, 19600, 9660, -409, 336, -96
1741, 323, 1340, 92, 7280, 560, 8960, -415, 334, -90
1742, 107, 1117, 132, 6790, 10710, 9590, -414, 330, -88
1743, -268, 873, 141, 1400, 1190, 8260, -409, 337, -87
1744, -364, 845, 231, -8120, -24710, 5810, -414, 328, -90
1745, -75, 1216, 174, -16170, -46830, 3500, -414, 330, -88
1746, 225, 1287, 261, -18270, -35070, 4270, -424, 330, -106
1747, 128, 811, 426, -16520, -24430, 4550, -427, 333, -97
1748, 173, 595, 479, -14910, -24430, 3360, -418, 330, -100
1749, 344, 707, 387, -11130, -21420, 2590, -420, 327, -100
1750, 468, 746, 333, 6930, 27930, 5040, -420, 327, -100
1751, 276, 661, 332, 13020, 43820, 5390, -423, 334, -94
1752, 130, 987, 256, 13160, 41090, 4410, -415, 334, -102
1753, 110, 1404, 206, 8820, 28420, 2940, -417, 328, -97
1754, 155, 1672, 165, 3220, 17150, 1750, -409, 334, -99
1755, 137, 1334, 178, -7840, 5600, 0, -418, 328, -117
1756, 11, 911, 191, -12600, -1540, -1050, -411, 334, -94
1757, 5, 650, 190, -15890, -8540, -1890, -411, 322, -94
1758, 107, 519, 202, -16170, -9030, -2030, -412, 331, -109
1759, 169, 454, 231, -13230, -910, -1610, -421, 337, -102
1760, 207, 676, 394, -3360, 16660, -1120, -411, 325, -99
1761, 313, 1014, 425, 2450, 23730, -1400, -417, 336, -96
1762, 418, 1206, 376, 9100, 36890, -1470, -412, 322, -100
1763, 486, 1064, 348, 15610, 53620, -1120, -412, 331, -102
1764, 196, 730, 250, 20510, 65030, -1050, -412, 339, -99
1765, 123, 614, 213, 17850, 54320, -1680, -403, 322, -87
1766, 77, 680, 162, 14210, 41300, -2730, -402, 340, -93
1767, 7, 876, 148, 11970, 35560, -3220, -409, 334, -91
1768, 37, 955, 160, 9800, 32130, -3780, -409, 330, -79
1769, -111, 951, 238, 1960, 15680, -5950, -406, 327, -85
1770, -72, 1010, 251, -3080, 1680, -7140, -409, 333, -84
1771, 54, 1069, 283, -6370, -7490, -7700, -402, 328, -81
1772, 180, 996, 341, -5950, -6510, -7840, -417, 327, -82
1773, 234, 936, 400, -2240, 1050, -7560, -409, 318, -91
1774, 386, 994, 424, 10010, 19180, -6580, -402, 334, -81
1775, 423, 975, 311, 16240, 33040, -5530, -411, 333, -82
1776, 228, 911, 227, 19670, 44170, -4480, -409, 331, -82
1777, -49, 873, 189, 17640, 40460, -4690, -408, 319, -75
1778, -244, 1257, 143, 1610, -3500, -7840, -406, 330, -76
1779, -123, 1419, 135, -5040, -16100, -8890, -409, 324, -76
1780, -53, 1237, 169, -8820, -16660, -9100, -403, 336, -81
1781, -107, 804, 200, -11410, -16100, -8890, -400, 333, -82
1782, -108, 463, 265, -13510, -20510, -8680, -400, 337, -85
1783, 315, 679, 405, -7560, -16380, -7140, -406, 333, -97
1784, 567, 970, 392, 4410, 14630, -4270, -399, 327, -91
1785, 574, 1149, 382, 17290, 52710, -630, -402, 328, -85
1786, 349, 1262, 318, 25550, 78750, 1750, -402, 334, -76
1787, -35, 1557, 196, 24500, 77210, 2030, -393, 330, -84
1788, -238, 2041, -20, 2730, 24780, -1540, -400, 325, -73
1789, -174, 1801, 15, -9520, -1330, -2870, -402, 333, -69
1790, -112, 1334, 47, -18550, -18060, -3220, -390, 328, -69
1791, -91, 882, 78, -23870, -28420, -2870, -405, 337, -75
1792, -160, 249, 123, -25200, -31570, -1330, -399, 340, -84
1793, -129, 93, 172, -23240, -28840, -420, -402, 327, -81
1794, -127, 11, 244, -20300, -26670, 0, -402, 340, -88
1795, -90, 85, 390, -14840, -23660, -140, -402, 336, -88
1796, 167, 456, 496, -5530, -12530, 210, -402, 336, -88
1797, 627, 1031, 420, 21490, 52920, 4480, -418, 336, -75
1798, 435, 783, 370, 30240, 78610, 6580, -396, 339, -64
1799, 59, 626, 298, 30240, 76020, 6720, -396, 333, -64
1800, -32, 890, 221, 23800, 52640, 5600, -394, 336, -58
1801, 126, 1424, 135, 17570, 37380, 4900, -396, 340, -55
1802, -92, 1707, 122, 8050, 38780, 4270, -397, 327, -57
1803, -398, 1361, 135, -1120, 22680, 1960, -411, 334, -55
1804, -390, 1295, 120, -12810, -7350, -560, -399, 333, -61
1805, -77, 1380, 116, -21980, -29470, -1680, -403, 330, -57
1806, 143, 838, 239, -23870, -21070, 0, -394, 325, -57
1807, 28, 553, 353, -20720, -14980, 840, -396, 339, -60
1808, 26, 569, 417, -16450, -12950, 1050, -412, 331, -73
1809, 277, 786, 427, -9170, -4830, 1610, -406, 330, -73
1810, 532, 1014, 384, 1680, 17710, 3220, -400, 328, -63
1811, 284, 768, 282, 20860, 62440, 6370, -402, 328, -67
1812, 33, 623, 216, 22260, 60410, 6020, -400, 318, -66
1813, -121, 680, 163, 19390, 46410, 5040, -390, 336, -60
1814, -45, 831, 131, 14840, 29890, 4130, -397, 327, -64
1815, -1, 1024, 104, 10990, 20230, 3430, -394, 334, -52
1816, -182, 1092, 107, 2100, 3920, 910, -402, 328, -55
1817, -192, 1085, 157, -4480, -11410, -700, -403, 322, -58
1818, -116, 1054, 192, -10710, -26880, -1960, -399, 318, -60
1819, 66, 1040, 247, -13930, -35280, -2590, -394, 334, -57
1820, 333, 1228, 325, -9030, -20090, -1680, -393, 325, -67
1821, 238, 1187, 349, -3640, -5600, -1260, -397, 324, -63
1822, 159, 1120, 316, 1050, 3780, -1330, -396, 324, -54
1823, 82, 1044, 262, 4620, 9940, -1610, -397, 325, -60
1824, 45, 885, 215, 6650, 11550, -1960, -394, 324, -57
1825, 0, 560, 174, 9100, 8680, -3150, -399, 330, -54
1826, 14, 554, 154, 10080, 6930, -3150, -387, 328, -66
1827, 63, 586, 147, 10710, 6300, -2800, -400, 324, -61
1828, 27, 706, 137, 10430, 3990, -2520, -396, 328, -60
1829, 1, 1132, 126, 8610, -1190, -3500, -394, 333, -55
1830, -166, 1795, 112, -1050, -20440, -5040, -403, 322, -63
1831, -203, 1722, 117, -8890, -36820, -6790, -402, 328, -66
1832, -230, 1392, 161, -16730, -54880, -8470, -394, 328, -67
1833, -169, 991, 178, -21980, -67970, -9310, -397, 322, -70
1834, 112, 350, 191, -19040, -60200, -7980, -388, 321, -84
1835, 123, 71, 248, -12040, -41510, -6580, -393, 325, -84
1836, 64, -112, 312, -3850, -24430, -5320, -405, 324, -85
1837, 169, -44, 313, 5040, -10570, -4550, -394, 331, -78
1838, 325, 466, 240, 14840, 8820, -3430, -406, 322, -75
1839, 251, 2265, 207, 24920, 44870, -1540, -405, 325, -73
1840, -174, 2563, 167, 15890, 27160, -3500, -393, 318, -69
1841, -414, 2286, 113, -1260, -14700, -7000, -399, 325, -70
1842, -443, 1828, 63, -18620, -58520, -10150, -399, 331, -73
1843, -154, 1403, 76, -29890, -84700, -11200, -402, 321, -94
1844, 54, 141, 141, -26460, -65170, -9380, -399, 321, -93
1845, 40, -307, 183, -19250, -44590, -7280, -396, 318, -91
1846, -11, -420, 239, -12670, -29470, -5810, -406, 319, -97
1847, 53, -333, 274, -6510, -19460, -4970, -393, 322, -84
1848, 464, 799, 296, 11410, 20790, -2800, -399, 322, -87
1849, 438, 1719, 365, 19810, 47670, -1540, -402, 328, -94
1850, 177, 2387, 373, 21350, 57400, -1260, -397, 325, -97
1851, -130, 2487, 350, 14560, 43750, -2660, -403, 318, -84
1852, -344, 1936, 274, 1540, 10290, -5250, -391, 328, -97
1853, -9, 793, 144, -14980, -33530, -8190, -399, 333, -94
1854, 219, 453, 149, -12180, -19390, -6790, -399, 324, -93
1855, 182, 52, 164, -5460, 4690, -4340, -403, 334, -94
1856, 43, -192, 273, 1050, 21000, -2660, -402, 322, -88
1857, 35, -90, 332, 13650, 34090, -770, -393, 336, -93
1858, 478, 613, 290, 24220, 58940, 1820, -400, 327, -87
1859, 475, 692, 319, 35560, 87150, 5040, -400, 333, -78
1860, 339, 797, 326, 43190, 102340, 7210, -390, 330, -73
1861, 221, 1311, 273, 45220, 101290, 8190, -396, 327, -72
1862, -200, 2294, 102, 33600, 75460, 6160, -397, 331, -54
1863, -453, 2057, 119, 21000, 48160, 3640, -393, 330, -49
1864, -581, 1546, 97, 7070, 13860, 420, -396, 331, -51
1865, -302, 1264, 102, -4830, -18970, -840, -388, 337, -45
1866, 72, 1125, 79, -10220, -28140, -280, -390, 337, -51
1867, -23, 558, 81, -8820, -6020, 3990, -397, 330, -49
1868, -282, 381, 127, -10850, -9800, 4620, -399, 343, -54
1869, -367, 396, 138, -14840, -25270, 3990, -393, 322, -58
1870, -221, 500, 185, -17360, -39060, 3080, -393, 337, -45
1871, 67, 751, 301, -5670, -22330, 3010, -393, 327, -58
1872, 491, 1750, 339, 4900, 3430, 4200, -393, 331, -58
1873, 396, 1898, 323, 11970, 22050, 5110, -396, 324, -54
1874, 22, 1710, 217, 12390, 23310, 4480, -390, 334, -49
1875, -244, 1294, 112, 5600, 2660, 2660, -396, 322, -57
1876, -217, 724, 53, -9450, -41160, -1750, -391, 331, -54
1877, -38, 559, 58, -11340, -44310, -2380, -390, 328, -58
1878, 30, 409, 51, -10150, -37450, -1890, -399, 331, -63
1879, 9, 273, 86, -8330, -28000, -1120, -402, 324, -63
1880, -111, 267, 114, -8540, -27090, -630, -399, 339, -63
1881, -17, 598, 213, -11620, -37380, -1400, -388, 325, -63
1882, 95, 737, 332, -9730, -31990, -2030, -397, 331, -70
1883, 158, 933, 396, -4410, -18900, -2660, -402, 324, -69
1884, 226, 1427, 421, 3080, -1260, -3080, -399, 330, -70
1885, 310, 1851, 373, 11830, 22890, -2940, -394, 319, -69
1886, 95, 1633, 277, 9800, 19040, -2730, -399, 322, -66
1887, -8, 1271, 191, 4830, 6020, -2870, -388, 324, -66
1888, 18, 920, 138, 70, -6230, -3220, -390, 321, -73
1889, 106, 706, 110, -1540, -7560, -3430, -388, 322, -70
1890, 124, 329, 117, 3290, 14770, -2590, -393, 324, -63
1891, 82, 253, 130, 5670, 22960, -2380, -397, 328, -66
1892, 71, 446, 159, 6860, 24850, -2730, -396, 325, -67
1893, 139, 920, 197, 7490, 23730, -3220, -391, 319, -64
1894, 244, 1426, 238, 8610, 25480, -3430, -379, 331, -69
1895, 80, 1526, 260, 8960, 29330, -4270, -393, 313, -64
1896, -21, 1284, 219, 7000, 22680, -5460, -385, 321, -67
1897, -23, 1058, 172, 4200, 14070, -6510, -390, 319, -57
1898, 33, 872, 113, 2310, 8330, -7000, -381, 327, -60
1899, 70, 869, 48, -980, 5390, -7210, -378, 324, -55
1900, -170, 1209, 27, -5530, -3430, -8260, -393, 318, -58
1901, -201, 1528, 30, -12460, -20230, -9520, -391, 322, -64
1902, -175, 1654, 126, -19600, -40390, -10710, -393, 322, -61
1903, -81, 1666, 156, -23520, -58940, -11620, -393, 313, -81
1904, 273, 1353, 158, -18480, -53830, -11200, -388, 319, -69
1905, 77, 747, 171, -13650, -36190, -10710, -390, 331, -78
1906, -186, 176, 160, -12040, -30660, -11200, -385, 325, -84
1907, -286, -43, 118, -12880, -36820, -12250, -388, 319, -79
1908, -133, 9, 75, -13510, -44100, -12950, -382, 321, -85
1909, 198, 230, 55, -7000, -21560, -11900, -391, 324, -87
1910, 91, 403, 95, -3920, -4130, -11270, -385, 316, -97
1911, -96, 687, 217, -4130, 1540, -11970, -390, 327, -93
1912, -138, 1092, 384, -5880, -4690, -14140, -384, 319, -85
1913, 49, 2123, 481, 770, -6090, -16730, -387, 313, -91
1914, 317, 1830, 376, 8820, 9590, -14980, -391, 318, -93
1915, 201, 1137, 305, 15120, 24920, -12880, -388, 312, -90
1916, -67, 604, 232, 16380, 28910, -12040, -387, 313, -90
1917, -228, 399, 132, 12250, 17850, -12460, -387, 316, -78
1918, 94, 582, 51, 7280, 7210, -13020, -385, 315, -84
1919, 239, 619, 57, 9380, 23520, -11830, -375, 321, -87
1920, 72, 709, 63, 10220, 38570, -10570, -379, 315, -81
1921, -110, 1126, 68, 5950, 36330, -10640, -384, 313, -88
1922, -260, 1669, 47, -3850, 16450, -12110, -379, 304, -82
1923, -238, 1955, 233, -27020, -33040, -16450, -388, 318, -82
1924, -59, 1614, 397, -31990, -46900, -18620, -385, 309, -103
1925, 289, 1304, 405, -28490, -45710, -19530, -388, 322, -90
1926, 661, 1052, 332, -16590, -20510, -18270, -378, 315, -105
1927, 404, 176, 243, 12110, 63490, -13160, -379, 319, -91
1928, 82, -38, 165, 18060, 80780, -12740, -381, 312, -96
1929, -241, 67, 44, 16870, 74410, -13720, -370, 309, -81
1930, -161, 361, 9, 13090, 57820, -14840, -373, 309, -79
1931, -106, 782, -14, 10150, 45360, -15260, -378, 309, -78
1932, -164, 1229, 73, 3430, 33740, -16940, -369, 310, -76
1933, -269, 1429, 175, -4060, 16660, -20020, -366, 318, -76
1934, -281, 1799, 270, -11830, -6720, -23730, -369, 315, -79
1935, -62, 2046, 316, -16730, -26670, -26460, -369, 309, -75
1936, 40, 1805, 259, -16310, -31850, -27510, -367, 304, -84
1937, 57, 428, 241, -6930, -11690, -28000, -352, 304, -90
1938, 114, 288, 171, -2730, -3010, -28210, -364, 306, -82
1939, 83, 477, 77, 1120, 7280, -28280, -366, 303, -73
1940, 100, 575, 79, 3920, 15470, -28350, -355, 301, -84
1941, 35, 828, 137, 6650, 28630, -29820, -358, 301, -82
1942, 23, 1050, 136, 6020, 30030, -31360, -360, 300, -79
1943, 62, 1157, 129, 4270, 27300, -32620, -357, 292, -84
1944, 51, 1153, 150, 3500, 27370, -33670, -360, 297, -76
1945, 126, 1087, 160, 2870, 26740, -34300, -352, 291, -81
1946, 130, 1012, 141, 3220, 29820, -35350, -355, 286, -76
1947, 44, 1065, 126, 3570, 32550, -36330, -361, 285, -72
1948, 40, 934, 130, 2870, 33460, -37800, -346, 282, -78
1949, -23, 730, 130, 2240, 36890, -39760, -345, 285, -76
1950, 41, 571, 144, 1610, 38220, -41580, -342, 274, -70
1951, 40, 491, 171, 6300, 41580, -43820, -334, 282, -67
1952, 15, 510, 196, 11550, 43400, -44380, -334, 274, -73
1953, 81, 776, 189, 17570, 46480, -44590, -336, 273, -66
1954, 37, 1401, 142, 22820, 52430, -45500, -333, 270, -70
1955, -53, 1820, 54, 23030, 61110, -49910, -322, 261, -64
1956, -70, 1531, 41, 18620, 60130, -53200, -322, 262, -63
1957, -24, 1167, -10, 13300, 54390, -56420, -322, 259, -52
1958, -8, 917, -47, 9590, 49280, -58310, -316, 264, -48
1959, -30, 759, -44, 7910, 46410, -59080, -319, 261, -49
1960, -152, 579, -10, 4410, 38500, -62020, -316, 253, -49
1961, -193, 717, -6, 1190, 30450, -64540, -310, 252, -45
1962, -213, 894, 30, -1610, 23310, -67270, -315, 234, -48
1963, -298, 1006, 55, -3640, 13650, -69160, -301, 238, -43
1964, -319, 966, 115, -4410, 3430, -70350, -298, 234, -55
1965, -416, 714, 190, -5040, -19180, -71890, -301, 232, -63
1966, -483, 657, 170, -4270, -25830, -72450, -300, 231, -58
1967, -413, 611, 139, -2590, -28420, -72800, -295, 220, -58
1968, -416, 581, 114, 0, -26740, -73150, -295, 220, -58
1969, -323, 578, 151, 8120, -7840, -72940, -294, 223, -63
1970, -152, 642, 136, 13300, 6650, -72030, -283, 213, -72
1971, -84, 721, 96, 18900, 26320, -70770, -282, 208, -58
1972, -4, 801, 79, 22960, 45080, -69370, -274, 201, -60
1973, -32, 943, 45, 25060, 62300, -68250, -270, 195, -60
1974, -151, 1339, -55, 22680, 82600, -67900, -270, 196, -60
1975, -265, 1323, -63, 19670, 85820, -68670, -271, 195, -45
1976, -386, 1177, -64, 16590, 85400, -69790, -264, 186, -48
1977, -463, 979, -43, 13580, 79730, -70700, -267, 193, -45
1978, -506, 784, -25, 11340, 70980, -71120, -259, 174, -45
1979, -548, 555, 5, 10710, 50610, -69720, -264, 175, -28
1980, -553, 545, 11, 11970, 42070, -68740, -268, 169, -37
1981, -523, 622, 2, 14280, 38500, -67970, -250, 162, -28
1982, -539, 768, -30, 16940, 39130, -67760, -253, 168, -33
1983, -619, 1082, -137, 19880, 43330, -69440, -261, 162, -36
1984, -661, 1196, -181, 18620, 41860, -71470, -244, 162, -37
1985, -640, 1220, -207, 15750, 36960, -73780, -246, 148, -27
1986, -558, 1123, -199, 12180, 29190, -75460, -244, 148, -22
1987, -489, 966, -177, 8890, 19950, -75880, -246, 130, -27
1988, -557, 722, -147, 4550, -1260, -74480, -241, 142, -30
1989, -673, 649, -143, 3080, -12740, -74130, -238, 123, -31
1990, -826, 614, -142, 1400, -28420, -74900, -238, 132, -33
1991, -880, 604, -147, -280, -46200, -76860, -229, 117, -46
1992, -807, 571, -123, -1680, -61390, -84490, -226, 114, -45
1993, -716, 546, -130, -1470, -65100, -88480, -225, 105, -55
1994, -590, 581, -78, -3990, -76020, -88480, -226, 106, -61
1995, -535, 608, -133, -1470, -59430, -91910, -225, 97, -70
1996, -439, 647, -123, -4130, -66220, -91210, -225, 91, -78
1997, -360, 674, -94, -1610, -29330, -91140, -222, 93, -76
1998, -40, 582, -41, 2870, 4900, -91700, -220, 69, -87
1999, -314, 578, -130, 4480, 20930, -91420, -220, 73, -90
2000, -40, 450, -53, 10360, 54180, -92540, -225, 67, -93
2001, -377, 447, -111, 12670, 66080, -93730, -213, 63, -75
2002, -515, 393, -141, 19530, 83090, -101150, -211, 57, -73
2003, -183, 310, -66, 22260, 85890, -106540, -223, 46, -63
2004, -706, 428, -145, 23240, 79100, -112070, -207, 43, -66
2005, -336, 403, -92, 22820, 66780, -117950, -208, 28, -54
2006, -583, 465, -152, 23100, 44450, -127540, -208, 24, -64
2007, -674, 581, -158, 25410, 35280, -132160, -222, 18, -57
2008, -714, 530, -139, 26950, 21490, -138250, -204, 9, -70
2009, -1130, 378, -150, 27160, 7140, -146300, -202, 3, -66
2010, -680, 121, -50, 24360, -10640, -154490, -189, -7, -73
2011, -494, 327, -68, 18270, -23100, -167300, -205, -22, -76
2012, -1104, 733, -114, 18060, -11410, -174790, -199, -33, -73
2013, -1066, 888, -95, 18900, 7770, -184100, -201, -51, -87
2014, -900, 749, -36, 20510, 35210, -193410, -208, -52, -88
2015, -482, 422, -58, 19180, 43050, -200200, -204, -66, -90
2016, -347, 176, -147, 16660, 42630, -206150, -199, -79, -91
2017, -674, 42, -118, 16800, 44660, -209020, -196, -96, -90
2018, -1929, -172, 1197, -8260, 43120, -198170, -202, -111, -97
2019, -1447, 1404, -1708, -69020, 696360, 328720, -196, -124, -55
2020, -3997, -1787, -3967, -239470, -492590, 382340, -207, -70, 79
2021, -2192, -2281, -3777, 152670, 195440, 575960, -192, -37, 67
2022, -3887, 502, -3997, -296240, -315350, 184450, -199, -12, 82
2023, -3268, 1022, 1230, 98420, 40740, 277480, -196, 10, 69
2024, -2027, 463, 172, -198660, -456120, -643090, -184, 18, 28
2025, 907, -1040, -1882, -4970, -690410, -655130, -186, -15, 18
2026, 1825, 1932, 2862, -167860, 440790, -430150, -189, -60, -43
2027, -395, -1032, -3734, 165410, -175560, -320180, -196, -106, -61
2028, 808, 1005, 1523, -74690, -57120, 63140, -193, -87, -66
2029, 1138, 1376, -195, 67200, -230930, 52850, -204, -94, -42
2030, -2566, -332, -2133, 62020, -216020, -11480, -195, -102, -48
2031, -1490, 643, 1339, -7420, -81270, 29190, -202, -91, -42
2032, -405, -49, -384, 5390, -94780, 420, -198, -100, -52
2033, -1119, 516, -57, -25760, 124600, 20720, -195, -97, -52
2034, -870, -6, -474, -7910, 36680, 8960, -189, -97, -48
2035, -974, 443, 4, -140, -3850, -1050, -202, -90, -39
2036, -1154, 475, -553, -8190, 31430, 6090, -199, -88, -55
2037, -681, 338, 261, 15190, -70840, -11200, -190, -96, -49
2038, -873, 138, -2, -10150, 74480, 9660, -198, -94, -39
2039, -884, 378, -343, 7840, -61880, -6020, -187, -90, -42
2040, -424, 507, 409, 1260, -16240, -1120, -201, -100, -43
2041, -949, 245, -63, -7770, 55020, 6090, -199, -96, -39
2042, -1379, 324, -349, -2870, 12880, 1120, -196, -88, -52
2043, -933, 304, -4, 7840, -50890, -6230, -189, -100, -52
2044, -899, 303, 15, -2100, 19810, 2240, -190, -103, -52
2045, -1083, 374, -206, -1400, 10360, 1190, -198, -96, -42
2046, -1024, 316, -40, 1890, -9310, -1400, -190, -94, -55
2047, -940, 393, -142, -420, -2240, -420, -190, -90, -49
2048, -820, 327, 78, -2310, 10710, 1120, -193, -99, -49
2049, -1056, 297, -59, -1260, 11480, 1540, -195, -91, -52
2050, -1052, 358, -185, 910, -4480, -770, -193, -90, -48
2051, -864, 328, 31, 2310, -13300, -1540, -196, -94, -46
2052, -815, 401, 10, -490, 2170, -210, -192, -94, -49
2053, -1041, 351, -81, -280, 1890, 140, -193, -99, -46
2054, -975, 317, -111, 1050, -6230, -630, -192, -103, -54
2055, -878, 378, 13, 560, -4760, -770, -199, -94, -42
2056, -855, 351, -38, 140, -1050, -420, -187, -99, -51
2057, -957, 331, -18, -1470, 9310, 910, -201, -97, -51
2058, -957, 339, -48, 840, -4900, -560, -192, -102, -51
2059, -878, 378, -48, 490, -3640, -630, -196, -96, -52
2060, -896, 337, 6, -350, 2170, -140, -187, -88, -46
2061, -965, 354, -104, -910, 3920, 420, -195, -88, -46
2062, -986, 314, -27, 280, -1960, -210, -195, -100, -46
2063, -898, 338, 16, 700, -2800, -490, -193, -99, -46
2064, -907, 376, -82, -420, 2170, -140, -196, -93, -60
2065, -963, 318, -20, -490, 2730, 140, -201, -97, -42
2066, -978, 357, -110, -210, 70, 70, -195, -96, -48
2067, -905, 377, -65, 70, -210, -280, -198, -91, -43
2068, -922, 331, -16, 0, 840, -140, -189, -91, -46
2069, -956, 358, -81, -490, 2520, 0, -202, -91, -49
2070, -962, 324, -43, 210, -1050, -70, -208, -102, -43
2071, -940, 358, -69, 70, -560, -70, -198, -103, -49
2072, -927, 359, -53, -210, 1540, -140, -192, -97, -49
2073, -946, 337, -52, -70, 210, -70, -196, -94, -55
2074, -954, 342, -52, -140, 700, 0, -187, -97, -42
2075, -942, 342, -60, 140, -1190, -70, -190, -94, -48
2076, -927, 355, -62, 70, -210, -210, -196, -94, -51
2077, -941, 340, -34, -280, 1260, -140, -183, -93, -52
2078, -952, 348, -75, 0, -70, -140, -196, -96, -48
2079, -945, 332, -32, -70, -140, 0, -199, -88, -40
2080, -931, 359, -70, 70, -700, -70, -195, -90, -48
2081, -938, 361, -76, -70, 630, -140, -196, -90, -49
2082, -948, 329, -31, -70, 420, -70, -192, -93, -60
2083, -946, 357, -78, 0, -140, 0, -201, -100, -48
2084, -934, 333, -26, 140, -630, -70, -195, -103, -54
2085, -929, 363, -71, 0, 280, -140, -186, -93, -45
2086, -947, 356, -74, -210, 770, -70, -193, -94, -52
2087, -945, 332, -36, 70, -490, -70, -187, -94, -57
2088, -938, 356, -65, -70, -70, -70, -195, -102, -46
2089, -931, 339, -36, 140, -420, -140, -199, -93, -45
2090, -942, 338, -45, 70, -70, -140, -189, -93, -46
2091, -944, 349, -58, -210, 420, -70, -201, -91, -42
2092, -938, 342, -49, 0, -560, -70, -201, -99, -48
2093, -934, 349, -50, -70, 350, 0, -189, -88, -51
2094, -934, 347, -53, 140, -140, -140, -189, -93, -49
2095, -943, 345, -59, 0, -210, -140, -192, -91, -46
2096, -940, 341, -43, -70, 210, -70, -187, -102, -51
2097, -935, 351, -60, 0, -280, -70, -192, -100, -63
2098, -935, 342, -39, 70, 420, -70, -195, -93, -40
2099, -938, 353, -66, 70, 140, -210, -190, -93, -46
2100, -941, 352, -66, 0, -70, -70, -201, -93, -46
2101, -938, 337, -36, -70, 0, -70, -202, -106, -48
2102, -936, 355, -64, 0, 0, -70, -195, -100, -49
2103, -937, 338, -36, 70, 210, -140, -192, -90, -42
2104, -941, 336, -39, 0, -70, -140, -196, -100, -48
2105, -939, 352, -62, -70, 140, -70, -196, -91, -39
2106, -937, 339, -40, 70, -140, -70, -193, -93, -57
2107, -937, 353, -60, -70, 280, -140, -199, -94, -46
2108, -939, 341, -42, 0, 70, -140, -195, -97, -45
2109, -940, 340, -45, 70, -280, -70, -186, -102, -36
2110, -938, 349, -55, 0, 280, -70, -195, -91, -52
2111, -936, 344, -48, 0, -140, -70, -190, -99, -54
2112, -937, 349, -53, 0, 420, -140, -193, -97, -45
2113, -940, 344, -51, -70, -70, -140, -193, -97, -42
2114, -939, 345, -54, 0, -210, -70, -195, -88, -46
2115, -937, 345, -46, 0, 280, -70, -193, -90, -45
2116, -937, 349, -56, 0, 70, -140, -187, -81, -52
2117, -939, 343, -46, -70, 350, -70, -186, -100, -37
2118, -940, 340, -43, -70, 140, -70, -202, -102, -48
2119, -938, 350, -57, 0, -70, -70, -193, -91, -48
2120, -936, 342, -42, -70, 210, -70, -190, -90, -54
2121, -937, 351, -59, 0, 210, -140, -196, -94, -49
2122, -940, 341, -42, 0, 210, -70, -189, -91, -48
2123, -939, 340, -42, 0, -70, 0, -192, -91, -45
2124, -937, 351, -58, -70, 140, -70, -187, -87, -46
2125, -937, 342, -44, 0, 140, -70, -189, -88, -45
2126, -939, 350, -57, -70, 280, -70, -184, -96, -55
2127, -941, 341, -46, 0, 0, -70, -201, -94, -45
2128, -937, 343, -47, 0, -70, -70, -195, -103, -51
2129, -938, 349, -55, 0, 280, -140, -199, -93, -52
2130, -938, 344, -48, 0, 70, -140, -192, -100, -54
2131, -940, 347, -53, -70, 210, -70, -199, -99, -40
2132, -938, 346, -50, -70, 280, 0, -195, -90, -45
2133, -936, 347, -50, -70, 0, -140, -199, -99, -52
2134, -939, 345, -50, -70, 280, -70, -192, -99, -42
2135, -940, 346, -53, 0, 70, -70, -190, -97, -54
2136, -940, 344, -48, -70, 210, -70, -192, -103, -49
2137, -937, 344, -46, 70, 280, -70, -192, -100, -40
2138, -938, 349, -56, 0, 140, -140, -199, -88, -51
2139, -939, 343, -47, 0, 210, -70, -190, -99, -49
2140, -940, 348, -56, 0, 70, -70, -199, -87, -52
2141, -940, 342, -45, 0, 70, -70, -195, -102, -51
2142, -937, 343, -45, 0, 210, -70, -204, -88, -49
2143, -938, 349, -56, -70, 210, -70, -195, -99, -51
2144, -939, 343, -46, 0, 140, -140, -193, -105, -43
2145, -940, 348, -55, 0, 70, -70, -201, -90, -49
2146, -938, 349, -53, -70, 140, -140, -187, -94, -40
2147, -938, 345, -49, 70, 70, -140, -187, -93, -46
2148, -940, 348, -54, -70, 280, -70, -187, -103, -57
2149, -940, 343, -50, 0, 70, -70, -201, -93, -37
2150, -938, 347, -52, -70, 140, -70, -193, -94, -39
2151, -938, 347, -52, 0, 350, -70, -189, -94, -48
2152, -939, 345, -50, -70, 70, -70, -199, -94, -49
2153, -940, 345, -50, -70, 140, -70, -198, -93, -45
2154, -939, 346, -51, -70, 0, -70, -198, -103, -49
2155, -938, 344, -48, 0, 70, -70, -189, -93, -46
2156, -939, 345, -49, -140, 280, -70, -198, -93, -54
2157, -939, 347, -53, 0, 70, -70, -192, -93, -51
2158, -939, 345, -49, 0, 140, -70, -195, -96, -48
2159, -938, 348, -53, -70, 70, -70, -202, -90, -42
2160, -938, 347, -53, -70, 210, -70, -190, -99, -45
2161, -939, 344, -48, 0, 210, -140, -187, -96, -36
2162, -940, 346, -53, 70, 70, -70, -195, -91, -42
2163, -939, 344, -47, 0, 70, -70, -207, -93, -37
2164, -938, 348, -53, 0, 140, -70, -202, -100, -48
2165, -940, 347, -54, 0, 140, -140, -195, -96, -45
2166, -940, 344, -49, 0, 140, -70, -193, -96, -48
2167, -939, 347, -52, -70, 140, -70, -193, -97, -45
2168, -938, 345, -49, 0, 0, -70, -193, -94, -49
2169, -938, 347, -52, -140, 140, -70, -187, -94, -43
2170, -940, 346, -52, 0, 210, -140, -184, -97, -51
2171, -938, 345, -50, 0, 140, -70, -192, -90, -46
2172, -939, 346, -50, 0, 140, -70, -190, -108, -43
2173, -938, 346, -50, 70, 70, -140, -195, -91, -39
2174, -940, 346, -52, 0, 70, -70, -192, -99, -52
2175, -940, 345, -50, 0, 140, -70, -202, -93, -43
2176, -939, 346, -52, 0, 70, -140, -183, -97, -45
2177, -938, 345, -50, 0, 140, -140, -196, -93, -51
2178, -939, 346, -52, -70, 70, -70, -199, -96, -45
2179, -940, 347, -53, 0, 140, -70, -196, -93, -58
2180, -939, 345, -48, 0, 140, -70, -195, -93, -43
2181, -938, 346, -53, 70, 140, -70, -196, -94, -49
2182, -938, 344, -49, 0, 70, -70, -193, -94, -48
2183, -939, 346, -53, -70, 140, -70, -196, -100, -40
2184, -938, 347, -52, 0, 140, -70, -190, -90, -51
2185, -938, 345, -49, 70, 140, -70, -198, -96, -48
2186, -938, 346, -51, 0, 140, -140, -193, -97, -43
2187, -939, 345, -49, -70, 210, -70, -193, -93, -42
2188, -939, 345, -50, 70, -70, -70, -199, -96, -49
2189, -937, 346, -50, 0, 210, -70, -199, -94, -49
2190, -938, 346, -49, 70, 210, -70, -187, -93, -42
2191, -940, 346, -51, -70, 210, -140, -195, -91, -40
2192, -939, 346, -51, 0, 70, -140, -199, -91, -46
2193, -937, 346, -51, 0, 0, -70, -208, -88, -37
2194, -937, 346, -50, -70, 210, -70, -195, -90, -45
2195, -939, 346, -51, -70, 210, -70, -190, -93, -48
2196, -939, 345, -51, 0, 210, -70, -184, -99, -54
2197, -938, 346, -51, 0, 140, -140, -201, -88, -46
2198, -938, 346, -51, -70, 140, -140, -193, -97, -52
2199, -940, 345, -49, -70, 210, -70, -192, -90, -33
2200, -940, 346, -51, -70, 210, -70, -190, -99, -43
2201, -938, 346, -49, -70, 140, -70, -193, -94, -51
2202, -939, 345, -49, 0, 140, -70, -201, -97, -42
2203, -939, 346, -52, 0, 140, -70, -196, -96, -54
2204, -939, 345, -49, 0, 140, -140, -195, -94, -46
2205, -939, 346, -51, 0, 70, -70, -195, -102, -52
2206, -938, 345, -50, 0, 70, -140, -198, -97, -46
2207, -939, 345, -50, 0, 140, -140, -192, -99, -46
2208, -939, 347, -51, 0, 140, -70, -202, -93, -55
2209, -938, 345, -50, 0, 140, -140, -193, -85, -45
2210, -939, 346, -51, -70, 140, -140, -195, -93, -51
2211, -939, 345, -50, 0, 210, -70, -187, -90, -45
2212, -938, 345, -50, 0, 140, -140, -202, -99, -45
2213, -938, 346, -50, -140, 140, -70, -193, -93, -55
2214, -939, 345, -51, 0, 140, -70, -198, -93, -55
2215, -939, 346, -51, -70, 70, -70, -196, -99, -43
2216, -938, 346, -50, 0, 140, -70, -192, -94, -43
2217, -939, 346, -50, -70, 140, -70, -193, -82, -52
2218, -939, 345, -50, 70, 140, -70, -189, -94, -55
2219, -939, 345, -51, 0, 140, -140, -201, -94, -39
2220, -939, 345, -50, 0, 140, -70, -192, -94, -49
2221, -938, 346, -50, 0, 140, -70, -199, -93, -37
2222, -939, 346, -50, -70, 140, -70, -190, -100, -48
2223, -939, 345, -50, 0, 140, -70, -199, -94, -48
2224, -938, 345, -50, -70, 210, -70, -193, -102, -48
2225, -938, 345, -51, 0, 140, -140, -195, -93, -61
2226, -939, 345, -50, -70, 140, -70, -196, -100, -49
2227, -939, 346, -51, -70, 140, -140, -196, -93, -52
2228, -938, 345, -50, -70, 140, -140, -193, -99, -46
2229, -938, 346, -50, 0, 140, -140, -196, -90, -54
2230, -939, 345, -50, 0, 210, 0, -195, -99, -52
2231, -939, 346, -49, 0, 210, -70, -207, -96, -43
2232, -938, 346, -50, 0, 140, -70, -196, -94, -51
2233, -938, 345, -50, 0, 140, -70, -198, -96, -54
2234, -938, 346, -50, -70, 210, -140, -199, -93, -54
2235, -939, 345, -50, 0, 210, -70, -198, -103, -57
2236, -939, 345, -49, -70, 140, -70, -186, -103, -46
2237, -937, 347, -50, 0, 70, -70, -198, -91, -46
2238, -939, 345, -51, 0, 140, -140, -199, -97, -52
2239, -939, 346, -51, -70, 140, -70, -195, -94, -49
2240, -940, 346, -51, 0, 210, -70, -192, -96, -43
2241, -938, 346, -50, 0, 140, -70, -192, -87, -40
2242, -939, 345, -50, 0, 140, -70, -193, -99, -57
2243, -939, 345, -50, 0, 140, -70, -201, -93, -49
2244, -939, 346, -51, 0, 140, -140, -199, -90, -61
2245, -938, 346, -51, 0, 210, -140, -193, -100, -48
2246, -938, 345, -50, 0, 140, -70, -190, -90, -52
2247, -939, 345, -51, -70, 140, -70, -196, -91, -40
2248, -939, 346, -50, 0, 140, -70, -189, -97, -51
2249, -939, 346, -50, 0, 140, -70, -199, -94, -52
2250, -939, 345, -50, 0, 140, -70, -195, -91, -52
2251, -939, 346, -50, -70, 140, -70, -192, -91, -48
2252, -939, 345, -50, -70, 210, -70, -195, -93, -43
2253, -939, 345, -50, -70, 140, -140, -196, -96, -51
2254, -938, 345, -49, 0, 210, -140, -190, -96, -54
2255, -939, 345, -50, 0, 210, -140, -195, -93, -51
2256, -939, 346, -50, -70, 140, -70, -187, -90, -48
2257, -939, 345, -50, 0, 210, -70, -192, -102, -43
2258, -938, 346, -50, 0, 140, -140, -192, -90, -48
2259, -939, 345, -50, 0, 140, -70, -198, -94, -45
2260, -939, 345, -51, 0, 210, -70, -202, -93, -49
2261, -940, 346, -50, 0, 140, -70, -198, -88, -51
2262, -938, 346, -50, -70, 140, -70, -193, -96, -43
2263, -939, 346, -50, -70, 140, -70, -195, -102, -49
2264, -938, 346, -50, 0, 210, -70, -186, -105, -46
2265, -939, 346, -50, -70, 210, -70, -184, -94, -54
2266, -939, 345, -50, -70, 140, -70, -187, -87, -48
2267, -939, 346, -51, 0, 140, -140, -204, -96, -51
2268, -939, 345, -50, 0, 70, -140, -202, -88, -54
2269, -939, 345, -50, 0, 140, -70, -190, -103, -51
2270, -939, 345, -50, -70, 70, -70, -201, -85, -48
2271, -938, 345, -50, 0, 140, -140, -201, -99, -55
2272, -938, 345, -51, 0, 140, -70, -199, -93, -58
2273, -939, 345, -50, 0, 140, -70, -189, -100, -48
2274, -939, 345, -50, 0, 140, -70, -190, -96, -61
2275, -939, 345, -51, -70, 70, -70, -187, -93, -45
2276, -939, 346, -51, -70, 140, -70, -193, -88, -45
2277, -938, 346, -50, -70, 70, -70, -192, -96, -43
2278, -939, 345, -50, 0, 140, -70, -192, -96, -49
2279, -939, 345, -50, -70, 210, -70, -196, -100, -49
2280, -939, 346, -50, 0, 210, -70, -187, -94, -49
2281, -939, 345, -50, 0, 70, -140, -192, -87, -46
2282, -939, 346, -50, -70, 70, -70, -186, -99, -52
2283, -939, 346, -50, -70, 140, -70, -190, -93, -43
2284, -939, 346, -51, -70, 140, -70, -195, -93, -48
2285, -938, 346, -49, 0, 70, -140, -195, -85, -49
2286, -939, 346, -51, 0, 140, -70, -187, -88, -48
2287, -938, 345, -50, 0, 210, -70, -198, -99, -49
2288, -939, 345, -50, 0, 140, -140, -198, -99, -52
2289, -938, 346, -51, -70, 210, -70, -192, -94, -46
2290, -939, 345, -50, -70, 210, -140, -195, -94, -55
2291, -939, 345, -51, -70, 140, -70, -202, -102, -43
2292, -939, 346, -50, 0, 210, -70, -193, -99, -45
2293, -939, 346, -50, 0, 140, -70, -195, -100, -40
2294, -938, 346, -50, -140, 140, -70, -192, -94, -46
2295, -939, 345, -51, 0, 210, -70, -195, -96, -48
2296, -939, 346, -50, -70, 140, -70, -204, -97, -54
2297, -939, 345, -51, 0, 210, -70, -190, -87, -46
2298, -939, 346, -50, 0, 70, -70, -192, -97, -57
2299, -939, 345, -50, 0, 140, -70, -201, -91, -43
2300, -940, 346, -50, 0, 210, -70, -196, -99, -51
2301, -938, 345, -51, 0, 210, -140, -184, -93, -43
2302, -939, 345, -50, 0, 140, -70, -192, -94, -45
2303, -938, 345, -50, 0, 140, -70, -195, -87, -45
2304, -939, 346, -51, 0, 140, -70, -196, -99, -48
2305, -939, 346, -50, 0, 140, -70, -184, -88, -52
2306, -939, 345, -50, 70, 210, -70, -196, -106, -45
2307, -938, 346, -50, -140, 140, -70, -187, -90, -49
2308, -938, 346, -50, -70, 140, -70, -199, -87, -46
2309, -939, 345, -50, 0, 140, -140, -189, -88, -48
2310, -938, 345, -51, 0, 140, -70, -192, -91, -48
2311, -939, 346, -51, -70, 210, -70, -189, -97, -48
2312, -939, 346, -50, 0, 140, -70, -192, -97, -51
2313, -939, 346, -51, 0, 140, -70, -192, -100, -42
2314, -939, 346, -50, -70, 210, -70, -199, -99, -51
2315, -939, 346, -49, 0, 70, -140, -190, -100, -49
2316, -939, 345, -50, 0, 140, -70, -202, -93, -46
2317, -938, 346, -50, 0, 140, -140, -204, -85, -42
2318, -939, 346, -49, 0, 140, -70, -184, -99, -48
2319, -938, 345, -51, 0, 140, -70, -193, -94, -52
2320, -939, 346, -50, 0, 140, -140, -195, -91, -49
2321, -939, 346, -50, -70, 140, -70, -198, -93, -37
2322, -937, 346, -50, 0, 140, -70, -193, -94, -49
2323, -939, 345, -49, 0, 140, -70, -201, -88, -45
2324, -938, 345, -50, 0, 140, -70, -202, -96, -54
2325, -939, 346, -51, -70, 140, -140, -193, -93, -51
2326, -939, 345, -50, 0, 140, -70, -192, -90, -54
2327, -939, 346, -51, 0, 140, -70, -189, -96, -49
2328, -939, 346, -50, 70, 140, -70, -193, -100, -49
2329, -938, 346, -50, 0, 210, -140, -187, -91, -49
2330, -939, 345, -49, 0, 140, -70, -198, -103, -52
2331, -939, 345, -51, -70, 140, -70, -195, -100, -48
2332, -939, 345, -51, 0, 210, -70, -195, -93, -49
2333, -939, 346, -50, 0, 210, -70, -193, -97, -40
2334, -939, 345, -50, 0, 140, -70, -190, -90, -55
2335, -939, 345, -50, 0, 210, -70, -196, -97, -43
2336, -940, 346, -50, 0, 140, -70, -196, -90, -46
2337, -939, 346, -50, -70, 140, -70, -193, -94, -49
2338, -939, 345, -50, -70, 140, -70, -198, -87, -57
2339, -938, 346, -51, -70, 140, -70, -193, -94, -40
2340, -938, 345, -50, -70, 210, -140, -198, -91, -48
2341, -939, 345, -50, -70, 140, -70, -187, -90, -45
2342, -938, 346, -50, 0, 210, -70, -195, -88, -48
2343, -939, 345, -51, 0, 140, -70, -190, -105, -60
2344, -939, 345, -50, -70, 140, -70, -201, -99, -39
2345, -939, 346, -50, 0, 210, -140, -195, -94, -36
2346, -938, 345, -49, 0, 140, -70, -196, -96, -49
2347, -938, 346, -50, 0, 140, 0, -189, -91, -46
2348, -939, 345, -50, -140, 140, -70, -196, -97, -48
2349, -939, 345, -49, 0, 210, -140, -190, -100, -52
2350, -938, 346, -50, -70, 210, -70, -193, -94, -45
2351, -939, 346, -50, 0, 140, -140, -193, -94, -45
2352, -939, 346, -50, 0, 140, -70, -187, -96, -42
2353, -938, 345, -50, -70, 140, -140, -199, -102, -61
2354, -939, 345, -50, -70, 210, -140, -195, -102, -51
2355, -939, 345, -50, -70, 140, -70, -198, -91, -46
2356, -939, 346, -51, 0, 140, -70, -195, -97, -46
2357, -938, 346, -50, 0, 140, -70, -190, -99, -46
2358, -939, 346, -50, 0, 210, -70, -193, -94, -42
2359, -940, 345, -49, 0, 140, -70, -192, -97, -54
2360, -938, 345, -50, 0, 140, -140, -198, -88, -48
2361, -939, 346, -50, -70, 210, -70, -196, -93, -48
2362, -939, 345, -49, 0, 140, -70, -193, -93, -54
2363, -938, 345, -50, -70, 140, -70, -192, -96, -52
2364, -940, 346, -50, 0, 140, -140, -198, -88, -36
2365, -938, 347, -50, 0, 210, -140, -198, -88, -42
2366, -939, 346, -50, -70, 210, -140, -192, -87, -48
2367, -939, 345, -50, 0, 140, -70, -195, -93, -39
2368, -938, 345, -50, -70, 140, -70, -193, -87, -46
2369, -939, 346, -50, 0, 140, -70, -192, -90, -37
2370, -939, 345, -50, 0, 210, -70, -189, -94, -49
2371, -939, 346, -49, 0, 70, -70, -192, -97, -45
2372, -938, 345, -51, -70, 140, -70, -189, -88, -49
2373, -938, 345, -51, 0, 210, -70, -205, -93, -49
2374, -938, 346, -50, 0, 140, -70, -202, -99, -49
2375, -939, 346, -49, -70, 140, -70, -190, -91, -33
2376, -938, 345, -50, 0, 140, -70, -193, -94, -51
2377, -939, 346, -50, -140, 140, -70, -196, -96, -54
2378, -939, 345, -50, 0, 140, -70, -193, -90, -48
2379, -938, 345, -50, 0, 140, -70, -192, -103, -42
2380, -939, 345, -50, 0, 140, -70, -192, -96, -43
2381, -939, 346, -50, 0, 140, -140, -189, -99, -49
2382, -938, 346, -49, 0, 140, -70, -198, -84, -54
2383, -939, 346, -50, 0, 140, -70, -193, -93, -49
2384, -938, 346, -50, 0, 140, -70, -196, -94, -51
2385, -938, 346, -50, 0, 140, -70, -196, -97, -46
2386, -940, 346, -49, 0, 210, -140, -190, -94, -45
2387, -938, 345, -50, 0, 210, -70, -192, -100, -43
2388, -939, 345, -50, 0, 140, -70, -201, -100, -46
2389, -939, 346, -50, 0, 140, -70, -190, -93, -48
2390, -939, 346, -50, 0, 140, -70, -193, -96, -39
2391, -939, 346, -50, -70, 140, -70, -192, -94, -43
2392, -939, 345, -49, 0, 140, -70, -193, -97, -42
2393, -939, 345, -50, -70, 210, -70, -189, -105, -52
2394, -939, 345, -48, 0, 210, -140, -192, -100, -48
2395, -939, 345, -50, -70, 140, -70, -196, -90, -42
2396, -938, 346, -51, 0, 140, -70, -192, -91, -52
2397, -939, 345, -50, 0, 210, -70, -190, -94, -43
2398, -939, 345, -50, 0, 140, -70, -196, -90, -42
2399, -939, 346, -50, 0, 70, -140, -190, -94, -39
2400, -940, 346, -50, 0, 140, -140, -189, -96, -46
2401, -939, 346, -49, -70, 140, -140, -201, -94, -48
2402, -938, 345, -50, 0, 140, -70, -192, -85, -43
2403, -938, 346, -50, 0, 210, -70, -198, -96, -51
2404, -939, 346, -49, 0, 210, -140, -196, -88, -36
2405, -939, 346, -50, 0, 210, -140, -195, -96, -46
2406, -938, 346, -49, -70, 210, -70, -193, -90, -48
2407, -938, 345, -50, 0, 70, -70, -190, -93, -49
2408, -939, 346, -50, 0, 140, -70, -190, -94, -39
2409, -938, 346, -49, -70, 140, -70, -196, -97, -48
2410, -939, 345, -50, 70, 210, -70, -195, -93, -46
2411, -939, 346, -51, 0, 210, -70, -205, -91, -42
2412, -939, 345, -50, 0, 140, -70, -190, -90, -48
2413, -938, 345, -50, 0, 140, -70, -195, -85, -49
2414, -939, 345, -49, 0, 210, -70, -195, -94, -37
2415, -939, 345, -50, 0, 70, -70, -198, -91, -40
2416, -938, 346, -49, -70, 210, -70, -201, -91, -45
2417, -938, 346, -50, 0, 210, -70, -199, -99, -49
2418, -940, 345, -50, 0, 140, -70, -192, -94, -39
2419, -939, 346, -50, -70, 140, -70, -193, -102, -43
2420, -938, 346, -50, 0, 140, -70, -199, -102, -49
2421, -939, 346, -50, -70, 140, -140, -189, -94, -45
2422, -939, 345, -50, 70, 140, -70, -195, -88, -43
2423, -939, 345, -50, 0, 140, -70, -211, -87, -45
2424, -939, 346, -50, 0, 140, -70, -195, -94, -45
2425, -938, 345, -50, 0, 140, -140, -202, -91, -37
2426, -939, 346, -50, 70, 140, -70, -193, -93, -49
2427, -939, 345, -50, 70, 140, -70, -193, -96, -51
2428, -938, 346, -49, 0, 140, -70, -195, -96, -45
2429, -940, 345, -50, 0, 210, -70, -186, -87, -48
2430, -940, 345, -50, 0, 140, -70, -193, -96, -49
2431, -939, 345, -50, 70, 140, -70, -195, -90, -43
2432, -939, 345, -49, -70, 70, -140, -193, -102, -51
2433, -940, 345, -51, 0, 140, -70, -199, -93, -49
2434, -939, 346, -50, 0, 140, -70, -187, -91, -49
2435, -939, 346, -50, 70, 140, -70, -195, -99, -52
2436, -938, 345, -49, 0, 140, -70, -193, -97, -48
2437, -939, 345, -50, 0, 140, -140, -201, -88, -40
2438, -938, 345, -50, 0, 210, -70, -189, -97, -48
2439, -939, 345, -50, -70, 210, -70, -192, -99, -42
2440, -939, 346, -51, -70, 140, -70, -196, -87, -55
2441, -939, 345, -50, 0, 140, -70, -196, -93, -49
2442, -938, 345, -50, 70, 140, -70, -199, -94, -40
2443, -939, 346, -50, 0, 140, -70, -192, -93, -40
2444, -939, 346, -49, 0, 210, -70, -199, -96, -49
2445, -939, 346, -50, -70, 210, -70, -192, -96, -48
2446, -938, 346, -50, 0, 140, -70, -192, -100, -45
2447, -939, 346, -50, 0, 140, -70, -193, -94, -40
2448, -939, 345, -50, -70, 140, -70, -190, -94, -48
2449, -938, 346, -49, 70, 140, -70, -198, -103, -46
2450, -938, 345, -50, 0, 140, -70, -190, -87, -55
2451, -939, 345, -49, 0, 140, -70, -198, -99, -42
2452, -938, 346, -50, 0, 210, -140, -190, -87, -46
2453, -938, 345, -50, 0, 210, -70, -195, -94, -54
2454, -938, 345, -51, 0, 140, -70, -189, -96, -42
2455, -939, 346, -50, 0, 140, -70, -202, -96, -46
2456, -938, 345, -50, 0, 210, -140, -190, -96, -45
2457, -939, 346, -50, 0, 140, -70, -186, -87, -45
2458, -939, 346, -50, -70, 210, -140, -189, -94, -34
2459, -938, 345, -50, -70, 210, -70, -192, -90, -43
2460, -938, 346, -51, -70, 140, -70, -187, -105, -37
2461, -939, 346, -51, 0, 140, -70, -193, -94, -51
2462, -939, 346, -50, -70, 140, -140, -192, -96, -45
2463, -939, 345, -49, 0, 140, -70, -184, -91, -46
2464, -939, 346, -50, 0, 140, -140, -187, -106, -49
2465, -939, 345, -50, 0, 140, -140, -193, -91, -49
2466, -938, 346, -50, 0, 140, -70, -195, -94, -57
2467, -938, 345, -49, 70, 210, -70, -196, -90, -51
2468, -939, 346, -49, -70, 140, -70, -183, -105, -49
2469, -939, 346, -50, -70, 140, -70, -193, -91, -49
2470, -938, 346, -49, 0, 210, -140, -196, -97, -46
2471, -939, 346, -50, 0, 210, -140, -187, -102, -66
2472, -939, 345, -50, -70, 70, -140, -190, -100, -43
2473, -938, 345, -49, -70, 140, -70, -192, -94, -49
2474, -939, 345, -50, -70, 140, -70, -184, -97, -45
2475, -937, 345, -49, -70, 140, -70, -189, -88, -42
2476, -939, 345, -49, 70, 210, -140, -190, -100, -51
2477, -939, 345, -50, -70, 70, -70, -192, -93, -42
2478, -938, 346, -51, 0, 140, -70, -195, -94, -45
2479, -939, 346, -50, 0, 140, -70, -189, -97, -46
2480, -939, 345, -50, 0, 70, -70, -196, -99, -54
2481, -939, 345, -50, 0, 210, -140, -195, -97, -67
2482, -939, 345, -50, 0, 140, -70, -195, -102, -51
2483, -938, 346, -48, 0, 210, -70, -195, -93, -40
2484, -939, 345, -50, 0, 140, -140, -195, -91, -45
2485, -938, 346, -49, -70, 140, -70, -201, -99, -40
2486, -939, 345, -50, 0, 70, -70, -193, -94, -45
2487, -935, 341, -46, 140, 70, -70, -199, -81, -51
2488, -940, 342, -43, 70, 1120, 70, -202, -94, -40
2489, -937, 346, -50, 280, 140, -70, -193, -90, -48
2490, -938, 353, -56, 0, 1120, 0, -189, -93, -52
2491, -940, 344, -51, -70, -700, -210, -187, -96, -60
2492, -935, 344, -46, -70, -140, -140, -192, -85, -43
2493, -934, 341, -44, 0, 70, -70, -193, -90, -52
2494, -936, 344, -46, 70, 560, -70, -189, -102, -57
2495, -939, 350, -55, -70, 280, -70, -192, -93, -43
2496, -948, 344, -56, -210, -70, -140, -190, -94, -43
2497, -943, 343, -53, -140, -840, -210, -196, -96, -55
2498, -925, 345, -37, 70, -910, -140, -195, -97, -52
2499, -926, 341, -40, -70, 1050, 0, -196, -94, -60
2500, -948, 350, -60, 70, 210, -70, -198, -97, -57
2501, -941, 349, -54, 0, -210, -140, -187, -97, -43
2502, -939, 345, -51, -140, -140, -70, -195, -91, -39
2503, -937, 344, -48, -70, -420, -140, -201, -94, -46
2504, -932, 340, -43, -70, 0, -140, -196, -90, -42
2505, -941, 348, -53, 70, 280, 0, -196, -97, -49
2506, -937, 351, -52, 70, 140, -70, -195, -84, -51
2507, -940, 347, -51, -140, 280, -70, -189, -93, -51
2508, -941, 344, -49, -70, -140, -140, -198, -90, -40
2509, -937, 343, -45, 70, 350, -70, -186, -88, -51
2510, -938, 346, -51, 70, 280, -140, -187, -93, -54
2511, -940, 352, -53, -70, 350, -70, -198, -97, -45
2512, -943, 344, -52, -140, 210, -140, -199, -90, -45
2513, -939, 343, -47, 0, -210, -140, -195, -91, -46
2514, -931, 339, -40, 210, 840, 0, -205, -100, -51
2515, -941, 342, -49, 280, 1610, 140, -193, -94, -48
2516, -949, 350, -62, 210, 910, 70, -195, -85, -46
2517, -938, 357, -56, 140, -350, -140, -184, -97, -48
2518, -935, 353, -51, -70, 350, -70, -187, -97, -49
2519, -940, 345, -50, -70, -350, -210, -198, -97, -46
2520, -940, 347, -50, -140, 70, -140, -193, -91, -51
2521, -940, 345, -52, -140, -210, -210, -196, -96, -48
2522, -936, 345, -49, -140, -280, -140, -193, -99, -48
2523, -938, 346, -50, -140, -70, -140, -193, -100, -48
2524, -939, 344, -49, -70, 140, -70, -196, -93, -42
2525, -940, 347, -51, -70, 0, -70, -198, -93, -46
2526, -937, 347, -49, -70, -140, -140, -195, -97, -51
2527, -940, 345, -49, -140, 140, -140, -192, -99, -46
2528, -936, 345, -47, -70, -70, -70, -193, -88, -43
2529, -936, 344, -47, 0, 280, -70, -193, -99, -45
2530, -937, 345, -48, 0, 280, -140, -189, -102, -39
2531, -939, 346, -50, 0, 350, -70, -189, -93, -42
2532, -940, 345, -51, 0, 280, -70, -192, -93, -54
2533, -937, 345, -50, 0, 210, -70, -201, -100, -51
2534, -937, 345, -49, -70, 210, -70, -198, -93, -45
2535, -940, 345, -49, 0, 280, -70, -201, -100, -42
2536, -939, 346, -50, 70, 140, -70, -192, -90, -43
2537, -938, 347, -49, -70, 350, -70, -195, -97, -37
2538, -939, 346, -50, 0, 70, -70, -210, -97, -49
2539, -939, 345, -49, 70, 140, -70, -198, -94, -43
2540, -938, 345, -50, 0, 280, -70, -195, -97, -43
2541, -940, 346, -51, -70, 140, -70, -193, -97, -40
2542, -939, 344, -50, 0, 140, -140, -193, -99, -51
2543, -940, 345, -50, 0, 140, -70, -196, -85, -52
2544, -939, 345, -49, -70, 70, -70, -198, -100, -46
2545, -938, 346, -50, 0, 70, -70, -195, -96, -49
2546, -939, 346, -49, -70, 140, -140, -199, -93, -46
2547, -941, 345, -50, -210, 420, -70, -192, -90, -39
2548, -939, 343, -49, 0, -630, -210, -196, -96, -54
2549, -933, 346, -46, 0, 70, -70, -186, -97, -45
2550, -943, 345, -51, -70, 770, -70, -190, -94, -54
2551, -939, 344, -47, -140, 490, -70, -192, -99, -51
2552, -943, 346, -54, -70, 70, -70, -193, -96, -57
2553, -934, 344, -45, 70, -280, -140, -195, -87, -43
2554, -939, 345, -48, -70, 770, 0, -196, -94, -48
2555, -941, 344, -53, 70, 0, -140, -198, -87, -51
2556, -943, 346, -54, -70, 560, 0, -202, -99, -46
2557, -940, 347, -52, 70, -210, -70, -192, -91, -48
2558, -937, 347, -48, -70, 70, -70, -187, -96, -40
2559, -940, 345, -52, -140, 140, -70, -193, -93, -40
2560, -937, 344, -45, 0, -210, -140, -195, -91, -43
2561, -940, 346, -52, 0, 210, -70, -192, -99, -45
2562, -938, 347, -49, -70, 70, -70, -201, -97, -37
2563, -940, 344, -50, -70, 350, -70, -199, -90, -48
2564, -936, 343, -48, 0, -70, -140, -195, -99, -49
2565, -937, 343, -52, 70, 420, -70, -205, -99, -43
2566, -937, 348, -51, 70, 280, -70, -193, -96, -48
2567, -945, 351, -53, -140, 560, -70, -196, -93, -51
2568, -941, 343, -54, 0, -560, -210, -190, -96, -48
2569, -933, 344, -41, -70, -140, -140, -189, -84, -45
2570, -936, 344, -47, 70, -210, -140, -190, -93, -48
2571, -938, 347, -48, 0, 770, 0, -189, -91, -45
2572, -946, 348, -57, -70, 280, -70, -201, -94, -42
2573, -935, 347, -49, 0, -490, -140, -193, -94, -42
2574, -939, 345, -49, -210, 490, -70, -193, -91, -51
2575, -934, 344, -45, 0, 0, -140, -202, -94, -43
2576, -940, 345, -52, -70, 630, -70, -192, -87, -48
2577, -941, 347, -52, 70, -70, -70, -187, -102, -42
2578, -938, 347, -49, 0, 70, -70, -193, -91, -48
2579, -938, 344, -48, 0, -70, -140, -193, -88, -39
2580, -937, 344, -47, 0, 280, -70, -198, -94, -54
2581, -939, 346, -51, -70, 280, -70, -196, -96, -42
2582, -939, 346, -50, 70, 210, -70, -202, -93, -43
2583, -940, 346, -51, 0, 350, -70, -192, -93, -58
2584, -937, 346, -49, -140, 0, -70, -201, -85, -49
2585, -938, 345, -49, -70, 210, -70, -202, -100, -49
2586, -939, 346, -50, 0, 140, -70, -198, -93, -42
2587, -939, 347, -50, 0, 140, -70, -198, -91, -42
2588, -940, 346, -50, 0, 140, -140, -187, -91, -60
2589, -938, 344, -48, 0, 210, -70, -198, -97, -45
2590, -939, 345, -50, 0, 210, -140, -190, -93, -40
2591, -939, 345, -51, -140, 140, -140, -192, -94, -46
2592, -940, 346, -51, 0, 210, -70, -201, -87, -46
2593, -938, 345, -48, 0, 140, -70, -189, -90, -43
2594, -939, 345, -49, 0, 210, -70, -187, -93, -40
2595, -938, 345, -48, 0, 210, -70, -201, -97, -37
2596, -939, 345, -50, 0, 280, -70, -195, -100, -48
2597, -939, 345, -50, 0, 210, -70, -196, -94, -54
2598, -938, 345, -49, 0, 140, -70, -199, -99, -55
2599, -937, 345, -48, 0, 70, -70, -195, -96, -45
2600, -937, 345, -47, -70, 280, -70, -193, -100, -46
2601, -939, 345, -50, 0, 210, -70, -187, -82, -48
2602, -938, 346, -49, 70, 210, -70, -202, -90, -45
2603, -940, 345, -51, 70, 140, -70, -186, -99, -51
2604, -937, 346, -48, 0, 70, -70, -180, -108, -43
2605, -938, 345, -47, 0, 280, -70, -190, -90, -42
2606, -939, 345, -48, 0, 350, -70, -184, -90, -46
2607, -940, 346, -50, 0, 280, -70, -195, -99, -42
2608, -938, 347, -50, 0, 210, -70, -186, -93, -51
2609, -938, 346, -49, 0, 280, -140, -192, -93, -42
2610, -938, 346, -49, 0, 210, -70, -195, -93, -48
2611, -940, 346, -50, 0, 210, -70, -189, -90, -40
2612, -938, 345, -49, 0, 280, -70, -190, -99, -48
2613, -939, 346, -50, -70, 140, -140, -189, -94, -46
2614, -937, 346, -50, 0, 140, -140, -193, -93, -46
2615, -940, 345, -51, 0, 210, -140, -193, -96, -48
2616, -939, 346, -49, 0, 0, -140, -196, -91, -45
2617, -939, 346, -51, 0, -140, -140, -196, -99, -39
2618, -935, 345, -47, -70, 0, -140, -190, -94, -58
2619, -941, 346, -51, -70, 420, -70, -190, -93, -46
2620, -938, 346, -51, 0, -350, -140, -190, -91, -46
2621, -941, 345, -52, 0, 350, -70, -199, -94, -40
2622, -935, 344, -47, 70, -140, -140, -192, -90, -42
2623, -936, 345, -45, 0, 700, 0, -193, -90, -49
2624, -944, 346, -54, 70, 350, -70, -195, -99, -46
2625, -939, 347, -50, 0, -140, -140, -196, -93, -45
2626, -941, 344, -51, 0, 70, -70, -193, -97, -45
2627, -937, 345, -48, -70, 0, -140, -196, -94, -49
2628, -939, 346, -49, 0, 350, -70, -196, -88, -43
2629, -940, 345, -51, 0, 210, -140, -204, -93, -43
2630, -939, 347, -51, 0, 0, -140, -195, -93, -45
2631, -936, 345, -46, 0, -70, -140, -196, -99, -48
2632, -936, 342, -45, 0, 280, -140, -195, -93, -43
2633, -937, 342, -46, 140, 490, 0, -193, -94, -42
2634, -935, 343, -49, 210, 630, -70, -195, -99, -48
2635, -939, 339, -44, 350, 1470, 70, -202, -97, -42
2636, -944, 345, -53, 420, 1260, 70, -198, -103, -57
2637, -939, 353, -56, 280, 840, 0, -187, -93, -48
2638, -943, 352, -54, 210, 980, 70, -193, -100, -42
2639, -945, 348, -55, 70, 350, 0, -199, -94, -42
2640, -938, 352, -53, -140, 70, -70, -193, -96, -49
2641, -944, 348, -54, -210, -140, -140, -198, -91, -48
2642, -941, 344, -50, -210, -560, -140, -198, -94, -48
2643, -937, 344, -50, -210, -630, -210, -198, -97, -45
2644, -935, 342, -46, -210, 70, -70, -196, -90, -48
2645, -941, 342, -49, 0, 350, 0, -193, -96, -49
2646, -944, 345, -56, -70, 140, 0, -192, -88, -42
2647, -939, 349, -52, 70, -350, -70, -196, -94, -45
2648, -932, 344, -39, 70, 210, 0, -192, -90, -39
2649, -946, 354, -61, 0, -140, 70, -196, -88, -46
2650, -938, 355, -55, -140, -560, 0, -186, -93, -46
2651, -941, 345, -51, -350, -210, 0, -193, -102, -46
2652, -939, 343, -48, -280, -910, -140, -189, -93, -37
2653, -931, 342, -42, -140, -560, -70, -198, -87, -48
2654, -941, 339, -45, 140, 490, 140, -195, -91, -42
2655, -942, 346, -50, 140, 560, 210, -199, -97, -39
2656, -943, 348, -53, 140, 420, 210, -196, -94, -45
2657, -941, 349, -52, 140, 0, 210, -190, -99, -40
2658, -939, 351, -52, -140, -210, 140, -184, -93, -45
2659, -938, 347, -48, -140, -210, 140, -184, -94, -42
2660, -942, 347, -48, -210, -210, 140, -195, -97, -43
2661, -947, 348, -53, -280, -210, 280, -193, -88, -46
2662, -951, 347, -54, -350, -560, 280, -202, -97, -34
2663, -949, 343, -45, -280, -210, 770, -189, -93, -42
2664, -959, 342, -51, -210, 210, 1190, -199, -90, -51
2665, -967, 343, -53, -140, -70, 1470, -192, -90, -55
2666, -971, 344, -56, -210, -140, 1820, -181, -103, -43
2667, -967, 346, -56, -210, -980, 2240, -193, -91, -45
2668, -965, 347, -54, -490, -420, 3150, -192, -85, -40
2669, -963, 346, -53, -490, -980, 3430, -186, -87, -45
2670, -963, 345, -48, -560, -630, 3920, -199, -96, -48
2671, -960, 346, -52, -560, -980, 4200, -184, -90, -51
2672, -955, 347, -50, -630, -770, 4830, -193, -81, -43
2673, -957, 350, -50, -700, -980, 5180, -189, -91, -43
2674, -961, 351, -51, -770, -490, 5600, -201, -91, -48
2675, -970, 352, -55, -840, -770, 6020, -192, -93, -37
2676, -976, 352, -51, -910, -910, 6510, -190, -88, -39
2677, -983, 351, -54, -980, -1120, 7840, -199, -91, -51
2678, -986, 354, -53, -1050, -840, 8750, -196, -87, -48
2679, -997, 355, -58, -1260, -770, 9590, -193, -82, -43
2680, -1004, 355, -59, -1330, -1260, 10430, -184, -87, -43
2681, -1008, 355, -58, -1470, -1540, 11550, -184, -85, -43
2682, -1020, 357, -61, -1750, -1610, 14070, -195, -93, -42
2683, -1023, 361, -58, -1890, -1400, 15470, -192, -82, -46
2684, -1021, 362, -60, -1960, -1820, 16730, -198, -87, -36
2685, -1021, 362, -54, -2170, -1260, 18270, -196, -79, -46
2686, -1027, 364, -58, -2450, -1820, 21070, -193, -85, -46
2687, -1026, 362, -50, -2520, -1540, 22610, -189, -84, -37
2688, -1036, 366, -50, -2590, -1050, 24220, -192, -72, -37
2689, -1034, 370, -55, -2520, -2450, 25550, -181, -76, -34
2690, -1021, 375, -49, -2730, -2030, 27160, -198, -76, -37
2691, -1027, 386, -61, -3150, -2380, 30310, -189, -72, -39
2692, -1020, 390, -56, -3360, -2240, 31850, -193, -76, -33
2693, -1028, 397, -65, -3850, -2170, 33390, -189, -76, -33
2694, -1020, 404, -67, -4060, -4130, 34720, -195, -72, -37
2695, -1004, 408, -63, -4410, -4480, 36050, -195, -67, -34
2696, -994, 411, -54, -4970, -5250, 38570, -187, -67, -39
2697, -987, 409, -46, -5250, -5250, 39830, -198, -57, -36
2698, -986, 411, -42, -5250, -5670, 41020, -189, -58, -33
2699, -991, 416, -41, -5530, -5390, 42350, -192, -51, -31
2700, -988, 420, -46, -5740, -6300, 44730, -193, -57, -36
2701, -988, 438, -55, -5950, -6300, 46060, -193, -43, -37
2702, -982, 444, -48, -6090, -7140, 47390, -187, -54, -37
2703, -988, 451, -51, -6580, -6370, 48930, -198, -33, -34
2704, -992, 459, -59, -6720, -7770, 50050, -193, -43, -22
2705, -988, 504, -69, -7350, -8190, 52080, -196, -34, -25
2706, -986, 549, -69, -7490, -9520, 52220, -199, -28, -33
2707, -987, 599, -85, -7910, -7770, 52220, -187, -18, -24
2708, -952, 637, -91, -7210, -6790, 51310, -192, -25, -34
2709, -963, 652, -90, -7350, 5460, 51310, -193, -22, -34
2710, -774, 545, -53, -4340, 12530, 49980, -193, -21, -34
2711, -699, 498, -26, -4550, 27860, 52150, -204, -3, -25
2712, -750, 487, -41, -4620, 36260, 53970, -198, -19, -18
2713, -823, 503, -15, -4900, 38850, 55230, -195, -3, -15
2714, -945, 528, -56, -6580, 32830, 55510, -199, -4, -13
2715, -1009, 545, -44, -7140, 24430, 54810, -201, 4, -7
2716, -952, 525, -54, -7840, 19600, 54530, -196, -7, -6
2717, -859, 513, -53, -7630, 14700, 54320, -204, 12, 3
2718, -792, 553, -24, -7910, 18410, 55090, -199, 13, 0
2719, -986, 596, -137, -11480, 18970, 56420, -196, 12, 1
2720, -893, 641, -92, -11690, -2940, 54110, -202, 18, 10
2721, -801, 656, -47, -14630, -1190, 54460, -201, 22, 10
2722, -792, 585, -58, -14910, -6790, 53830, -193, 22, 6
2723, -726, 525, 7, -14070, -8400, 53620, -201, 25, 12
2724, -773, 602, 18, -11830, -630, 53060, -207, 31, 13
2725, -741, 635, 41, -9940, -6160, 51940, -192, 36, 10
2726, -729, 594, 20, -9450, -4060, 52010, -205, 39, 10
2727, -723, 545, 16, -8470, -5810, 51310, -196, 49, 4
2728, -697, 613, 11, -8050, 1540, 50820, -199, 51, 4
2729, -673, 669, -6, -8540, 9730, 51520, -210, 40, 9
2730, -711, 680, 0, -8960, 12880, 52080, -204, 60, 18
2731, -763, 674, -6, -9660, 13510, 52640, -201, 70, 24
2732, -796, 681, -3, -10080, 9100, 52430, -211, 57, 22
2733, -826, 669, -26, -11200, -840, 51450, -207, 69, 25
2734, -805, 651, -34, -11620, -5810, 51170, -216, 70, 18
2735, -751, 658, -24, -11690, -9870, 50820, -214, 63, 24
2736, -700, 680, -25, -11970, -8890, 51170, -211, 75, 28
2737, -664, 700, -15, -11970, -7280, 51520, -214, 69, 16
2738, -703, 711, -30, -12460, -2520, 52850, -214, 76, 19
2739, -728, 712, -27, -12810, -1470, 53340, -219, 76, 31
2740, -757, 715, -37, -12950, -2310, 53480, -213, 88, 27
2741, -750, 710, -34, -12880, -4620, 53620, -217, 93, 25
2742, -723, 717, -38, -13580, -6860, 54180, -225, 99, 37
2743, -680, 723, -17, -13440, -9660, 54110, -217, 100, 28
2744, -671, 726, -19, -14140, -7140, 54810, -216, 106, 31
2745, -667, 731, -25, -14140, -9730, 54670, -229, 102, 31
2746, -649, 737, -5, -14420, -9730, 54950, -219, 118, 28
2747, -699, 760, -20, -14910, -11130, 55790, -228, 112, 31
2748, -683, 767, -12, -14980, -13090, 56070, -226, 114, 37
2749, -663, 768, -10, -15050, -11970, 56630, -231, 124, 28
2750, -645, 768, -11, -14980, -11130, 57120, -222, 123, 22
2751, -610, 759, -8, -14910, -10990, 57330, -225, 126, 31
2752, -614, 770, -13, -15400, -7210, 58240, -226, 123, 36
2753, -593, 781, 6, -15330, -10570, 58100, -232, 135, 34
2754, -596, 787, 3, -16100, -8960, 58380, -237, 138, 24
2755, -609, 788, -5, -16240, -12250, 58030, -235, 141, 28
2756, -591, 806, 14, -16870, -15330, 57610, -246, 145, 28
2757, -613, 819, 0, -17150, -18900, 57400, -229, 148, 30
2758, -597, 816, 13, -17360, -22820, 57470, -244, 156, 36
2759, -582, 803, 14, -17500, -23450, 58030, -244, 159, 33
2760, -577, 802, 13, -17430, -22680, 58660, -249, 166, 27
2761, -572, 817, 6, -17360, -22960, 59500, -241, 168, 21
2762, -547, 821, 25, -17430, -23030, 59920, -250, 180, 25
2763, -526, 815, 23, -17360, -23100, 60270, -252, 180, 27
2764, -501, 823, 43, -17290, -23170, 60550, -250, 186, 24
2765, -499, 829, 35, -17360, -22540, 60760, -247, 177, 22
2766, -456, 834, 51, -17150, -24150, 60620, -258, 189, 22
2767, -434, 836, 63, -16940, -24500, 60410, -256, 189, 19
2768, -420, 839, 64, -16870, -23940, 60200, -259, 190, 16
2769, -407, 846, 71, -16660, -23800, 60060, -267, 196, 21
2770, -405, 846, 79, -16240, -21560, 60410, -270, 202, 22
2771, -413, 853, 79, -15960, -19950, 60830, -265, 207, 22
2772, -416, 864, 78, -15680, -19040, 61110, -271, 213, 21
2773, -412, 871, 83, -15400, -17360, 61460, -271, 214, 16
2774, -406, 868, 81, -15260, -16450, 61670, -270, 217, 12
2775, -371, 863, 98, -14840, -13580, 62510, -283, 222, 9
2776, -363, 869, 101, -14630, -12950, 62860, -286, 225, 15
2777, -362, 881, 109, -14630, -11410, 63140, -279, 234, 12
2778, -354, 883, 101, -14490, -12320, 63070, -280, 234, 16
2779, -318, 884, 123, -14280, -12320, 62930, -286, 235, 13
2780, -284, 879, 129, -13930, -10360, 62930, -291, 240, 16
2781, -275, 882, 133, -13860, -8120, 63000, -295, 252, 16
2782, -271, 887, 133, -13720, -7910, 62790, -297, 244, 13
2783, -261, 889, 139, -13650, -7000, 62650, -298, 246, 12
2784, -264, 892, 143, -13510, -5390, 62440, -301, 249, 13
2785, -252, 899, 151, -13440, -6020, 62230, -304, 264, 10
2786, -253, 911, 152, -13580, -4550, 62230, -301, 253, 21
2787, -244, 915, 149, -13580, -6090, 61810, -315, 267, 9
2788, -213, 915, 164, -13650, -6370, 61530, -315, 265, 21
2789, -180, 907, 167, -13790, -6160, 60760, -318, 274, 16
2790, -170, 906, 176, -13860, -4830, 60480, -324, 276, 15
2791, -173, 906, 169, -13790, -5110, 60060, -322, 277, 15
2792, -158, 912, 181, -13790, -5740, 59570, -321, 273, 15
2793, -159, 916, 178, -13930, -5180, 59080, -325, 279, 15
2794, -131, 916, 186, -13720, -7000, 57890, -331, 282, 13
2795, -115, 917, 189, -13790, -5950, 57470, -330, 291, 16
2796, -101, 919, 187, -13580, -6160, 56910, -330, 294, 12
2797, -81, 923, 193, -13580, -5460, 56350, -342, 292, 9
2798, -48, 917, 196, -13160, -3990, 54950, -342, 297, 9
2799, -27, 913, 199, -12880, -3080, 54110, -343, 298, 13
2800, -9, 914, 205, -12530, -1680, 53270, -349, 304, 13
2801, -1, 917, 204, -12250, -700, 52360, -349, 301, 18
2802, 0, 923, 205, -12180, -280, 51240, -343, 307, 10
2803, -8, 933, 205, -12110, -1890, 48860, -355, 307, 15
2804, -5, 937, 204, -12180, -3850, 47460, -358, 306, 16
2805, 8, 937, 208, -12180, -5600, 46130, -361, 316, 9
2806, 17, 932, 209, -12250, -6650, 44730, -360, 315, 10
2807, 22, 931, 206, -12180, -10220, 41790, -352, 304, 16
2808, 48, 930, 207, -12110, -11480, 40530, -361, 319, 7
2809, 63, 928, 208, -11830, -12250, 39270, -366, 325, 12
2810, 75, 929, 213, -11340, -11620, 38150, -367, 318, 12
2811, 80, 933, 211, -10780, -10780, 37030, -375, 328, 6
2812, 91, 936, 220, -9800, -8120, 35140, -363, 318, 10
2813, 91, 938, 223, -9310, -7560, 34230, -373, 324, 16
2814, 86, 938, 222, -8960, -6650, 33390, -373, 325, 6
2815, 76, 941, 223, -8680, -5950, 32620, -382, 324, 10
2816, 67, 945, 223, -8470, -5950, 31780, -378, 328, 1
2817, 71, 946, 228, -8190, -6650, 29960, -372, 321, 10
2818, 86, 940, 237, -7910, -6790, 29190, -382, 328, 3
2819, 93, 936, 240, -7700, -6020, 28560, -382, 324, 6
2820, 90, 941, 242, -7420, -5110, 28000, -376, 324, 7
2821, 94, 945, 240, -6930, -4830, 26530, -387, 336, 3
2822, 88, 954, 238, -6930, -4200, 25830, -394, 337, 1
2823, 89, 964, 244, -6930, -5810, 24920, -394, 336, 6
2824, 84, 968, 242, -7210, -6510, 24080, -384, 328, 10
2825, 82, 964, 243, -7420, -8820, 23100, -388, 340, -1
2826, 78, 950, 243, -8050, -13090, 21140, -396, 340, 6
2827, 84, 946, 245, -8120, -15610, 20160, -390, 337, 15
2828, 93, 942, 247, -8050, -17150, 19250, -393, 336, 4
2829, 97, 942, 244, -7840, -18270, 18550, -394, 340, 3
2830, 97, 948, 246, -7770, -19040, 17920, -391, 334, -1
2831, 92, 963, 244, -7840, -21560, 16870, -402, 333, 9
2832, 90, 962, 241, -7840, -21980, 16450, -399, 339, -7
2833, 95, 963, 248, -7770, -22260, 16100, -403, 339, -4
2834, 94, 961, 235, -7840, -22820, 15750, -400, 342, -19
2835, 130, 957, 249, -7350, -20020, 15540, -396, 343, -6
2836, 153, 934, 255, -6650, -18760, 15330, -409, 345, -9
2837, 148, 935, 252, -6300, -15190, 15540, -399, 346, -10
2838, 140, 948, 252, -5740, -14490, 15470, -411, 348, -9
2839, 135, 958, 253, -5600, -12600, 15470, -406, 343, -12
2840, 132, 956, 258, -5040, -11060, 15260, -408, 340, -3
2841, 128, 958, 258, -4900, -9240, 15190, -418, 352, -9
2842, 123, 962, 251, -4690, -8750, 15190, -409, 348, -10
2843, 137, 961, 256, -4620, -8540, 15120, -414, 345, -24
2844, 133, 952, 252, -4550, -7070, 15120, -406, 343, -13
2845, 147, 943, 254, -4200, -3990, 15190, -409, 346, -10
2846, 151, 947, 257, -3710, -4060, 15050, -421, 346, -10
2847, 148, 945, 256, -3570, -1750, 15260, -417, 345, -13
2848, 144, 944, 257, -3360, -1680, 15050, -420, 342, -15
2849, 139, 947, 256, -3150, -1260, 14840, -414, 348, -9
2850, 149, 952, 251, -3080, -560, 14770, -412, 343, -18
2851, 164, 950, 252, -2870, -1050, 14350, -423, 342, -10
2852, 189, 945, 261, -2730, -210, 13930, -415, 357, -19
2853, 192, 950, 259, -2730, 840, 13440, -412, 357, -4
2854, 226, 947, 263, -2660, 70, 11970, -429, 345, -12
2855, 216, 941, 256, -2660, 770, 11200, -420, 345, -15
2856, 221, 934, 259, -2450, -560, 10220, -423, 351, -7
2857, 221, 933, 261, -2380, 0, 9450, -418, 349, -10
2858, 204, 936, 256, -2310, -560, 8540, -421, 355, -12
2859, 224, 940, 267, -1890, -1960, 6720, -424, 340, -13
2860, 214, 936, 253, -1680, -1050, 6090, -412, 360, -16
2861, 245, 929, 264, -1190, -1400, 5250, -420, 349, -21
2862, 252, 927, 266, -840, 2310, 4830, -426, 358, -22
2863, 240, 928, 253, 140, 4410, 3500, -430, 346, -10
2864, 223, 949, 255, 0, 5880, 2870, -429, 348, -16
2865, 213, 962, 256, -70, 3780, 1750, -420, 352, -15
2866, 192, 965, 248, -490, 2800, 770, -418, 357, -16
2867, 180, 963, 244, -840, -210, -420, -411, 346, -9
2868, 192, 951, 245, -1120, -3850, -2240, -420, 352, -12
2869, 199, 939, 237, -840, -4970, -3010, -423, 354, -19
2870, 212, 932, 241, -630, -4060, -3430, -423, 354, -18
2871, 203, 931, 230, -210, -3570, -3850, -417, 355, -18
2872, 211, 938, 237, 210, -2310, -4060, -424, 352, -18
2873, 193, 959, 233, 700, 630, -4410, -421, 351, -22
2874, 179, 966, 225, 910, 1400, -4690, -417, 349, -15
2875, 176, 969, 234, 980, 1820, -4830, -411, 349, -16
2876, 161, 964, 229, 1050, 2170, -4900, -421, 355, -15
2877, 152, 959, 229, 1050, 1750, -5110, -411, 355, -21
2878, 147, 953, 231, 1190, 1610, -5110, -423, 346, -12
2879, 140, 951, 227, 1190, 2030, -5180, -423, 352, -28
2880, 150, 950, 231, 1400, 1540, -5250, -421, 352, -13
2881, 164, 953, 238, 1610, 2800, -5040, -429, 349, -19
2882, 147, 965, 236, 1820, 4550, -4830, -421, 349, -21
2883, 136, 971, 240, 1610, 5180, -4690, -426, 352, -12
2884, 119, 973, 233, 1540, 3780, -4760, -418, 349, -13
2885, 120, 969, 237, 1190, 2730, -4900, -423, 349, -13
2886, 131, 960, 238, 1120, 1680, -5110, -415, 351, -6
2887, 156, 948, 248, 1540, 3360, -5040, -432, 348, -13
2888, 151, 952, 246, 1680, 3780, -5040, -415, 343, -12
2889, 142, 958, 244, 1680, 3850, -4970, -420, 361, -19
2890, 130, 962, 240, 1470, 3150, -5110, -420, 354, -12
2891, 123, 972, 238, 1050, 840, -5740, -424, 343, -10
2892, 130, 966, 244, 840, -560, -6020, -414, 348, -22
2893, 141, 958, 246, 770, -630, -6230, -411, 346, -16
2894, 143, 952, 244, 770, -910, -6300, -424, 339, -13
2895, 155, 947, 246, 980, -1050, -6370, -415, 349, -9
2896, 151, 951, 245, 1470, 1330, -6370, -420, 345, -15
2897, 145, 956, 245, 1680, 2800, -6370, -411, 352, -13
2898, 143, 961, 249, 1820, 2940, -6440, -415, 352, -18
2899, 138, 962, 249, 1820, 3360, -6510, -414, 337, -7
2900, 138, 957, 253, 1820, 3150, -6650, -411, 343, -15
2901, 128, 951, 251, 1890, 3500, -6860, -414, 348, -3
2902, 124, 958, 251, 1960, 2800, -7070, -417, 349, -7
2903, 123, 963, 251, 1820, 2520, -7280, -412, 343, -10
2904, 128, 960, 251, 1820, 1400, -7700, -414, 349, -10
2905, 142, 958, 251, 1750, 1190, -8120, -412, 354, -6
2906, 141, 959, 253, 1750, 1610, -8400, -408, 348, -6
2907, 134, 959, 248, 1610, 1190, -8680, -405, 337, -6
2908, 131, 963, 250, 1610, 770, -9100, -412, 345, -9
2909, 127, 964, 245, 1540, -70, -9450, -402, 348, -7
2910, 129, 959, 244, 1330, -1470, -10290, -396, 346, -7
2911, 131, 956, 244, 1260, -1890, -10710, -412, 346, -7
2912, 138, 952, 241, 1400, -2450, -11060, -405, 348, -13
2913, 142, 949, 244, 1540, -1750, -11340, -414, 348, -6
2914, 136, 950, 242, 1750, -1330, -11620, -403, 333, -15
2915, 135, 958, 241, 1890, -1750, -12460, -403, 342, -12
2916, 138, 957, 242, 1890, -1260, -12740, -408, 342, -7
2917, 140, 952, 244, 2100, -980, -13090, -406, 345, -13
2918, 141, 951, 249, 2240, -140, -13440, -414, 346, -15
2919, 134, 955, 249, 2590, 980, -14140, -400, 337, -4
2920, 127, 955, 248, 2730, 1260, -14560, -408, 342, -21
2921, 121, 955, 247, 2730, 1330, -14910, -400, 342, -13
2922, 116, 957, 248, 2800, 1050, -15400, -405, 345, -13
2923, 111, 959, 248, 2800, 980, -15820, -397, 342, -18
2924, 97, 961, 244, 2520, -1330, -16870, -396, 336, -10
2925, 107, 959, 247, 2450, -2310, -17430, -399, 339, -15
2926, 111, 953, 247, 2520, -2450, -17920, -397, 339, -12
2927, 117, 948, 249, 2730, -2310, -18340, -394, 339, -7
2928, 120, 948, 248, 2940, -1400, -18760, -399, 333, -13
2929, 117, 955, 245, 3360, 560, -19390, -400, 334, -13
2930, 105, 958, 243, 3430, 1260, -19810, -385, 333, -12
2931, 92, 960, 240, 3430, 1610, -20160, -397, 333, -15
2932, 81, 962, 237, 3430, 1190, -20510, -402, 328, -18
2933, 56, 961, 232, 3290, 0, -21350, -387, 334, -15
2934, 55, 960, 234, 3150, -910, -21630, -399, 327, -12
2935, 50, 959, 229, 3220, -1120, -21840, -382, 336, -12
2936, 55, 959, 235, 3500, -910, -21910, -388, 327, -10
2937, 43, 962, 230, 3570, 420, -21840, -382, 327, -15
2938, 13, 974, 224, 3430, 1330, -21490, -382, 333, -6
2939, -22, 981, 219, 3150, 980, -21140, -385, 330, -16
2940, -69, 990, 213, 2520, 70, -20510, -382, 325, -12
2941, -116, 1001, 206, 1890, -2660, -19810, -384, 328, 6
2942, -160, 1011, 196, 1050, -5040, -18690, -379, 325, -10
2943, -181, 1018, 185, 70, -9100, -15540, -375, 315, -16
2944, -173, 1013, 180, 70, -8260, -13230, -379, 321, -18
2945, -162, 1008, 186, 350, -4060, -10360, -384, 324, -12
2946, -172, 1000, 186, 910, 420, -7350, -379, 334, -15
2947, -217, 996, 200, 1400, 4900, -1960, -378, 331, -6
2948, -214, 1001, 209, 1330, 2100, -140, -379, 324, -16
2949, -185, 1006, 216, 840, -1050, 1260, -381, 325, -12
2950, -138, 1009, 222, 280, -3640, 2310, -373, 321, -9
2951, -83, 1005, 231, -280, -4760, 3500, -378, 330, -21
2952, -15, 999, 243, -1190, -3150, 5320, -382, 324, -21
2953, 21, 985, 259, -1120, -2660, 5600, -382, 327, -10
2954, 6, 970, 235, -1400, -140, 6230, -378, 325, -13
2955, 49, 956, 261, -770, -2310, 5810, -382, 327, -16
2956, 28, 952, 234, -1050, 2240, 6300, -373, 316, -18
2957, 34, 967, 230, -840, 2520, 5810, -379, 327, -10
2958, 51, 978, 244, -420, -1540, 4970, -381, 331, -25
2959, 51, 976, 234, -980, 980, 4900, -378, 331, -13
2960, 67, 967, 242, -630, -1120, 4200, -382, 333, -15
2961, 71, 952, 242, -490, 280, 3500, -382, 327, -10
2962, 50, 953, 224, -560, 2520, 3430, -378, 322, -19
2963, 59, 965, 238, -70, 700, 2800, -381, 325, -21
2964, 46, 971, 222, -350, 2030, 2590, -384, 327, -24
2965, 58, 976, 234, -140, 350, 1890, -384, 324, -18
2966, 60, 971, 229, -210, 630, 1260, -382, 327, -16
2967, 51, 966, 216, -210, 1890, 1190, -384, 331, -21
2968, 54, 966, 226, 70, 1820, 910, -384, 334, -9
2969, 39, 966, 214, 70, 2940, 910, -372, 334, -15
2970, 41, 970, 224, 350, 2940, 700, -385, 322, -13
2971, 30, 977, 221, 490, 3640, 560, -382, 325, -22
2972, 18, 975, 213, 420, 4130, 700, -381, 328, -10
2973, 16, 978, 219, 420, 3850, 700, -390, 318, -12
2974, 6, 978, 212, 420, 3780, 770, -384, 325, -22
2975, -7, 980, 214, 210, 2590, 980, -382, 322, -12
2976, 1, 976, 218, 140, 1470, 980, -385, 327, -9
2977, 13, 973, 218, 140, 1890, 1190, -388, 328, -13
2978, 19, 976, 220, 210, 2730, 1400, -385, 321, -7
2979, 26, 975, 224, 350, 3360, 1680, -381, 328, -12
2980, 20, 976, 226, 490, 4620, 2030, -379, 336, -10
2981, 15, 976, 228, 420, 5180, 2240, -370, 331, -7
2982, 8, 972, 228, 490, 4480, 2170, -381, 333, -16
2983, 13, 970, 232, 420, 4130, 2170, -381, 319, -15
2984, 16, 972, 230, 420, 3570, 2100, -385, 333, -15
2985, 32, 972, 234, 280, 3780, 2030, -385, 330, -3
2986, 35, 972, 237, 280, 4130, 2100, -378, 330, -15
2987, 33, 972, 237, 350, 4060, 2030, -382, 325, -7
2988, 29, 970, 235, 350, 3990, 1890, -390, 336, -10
2989, 21, 967, 233, 140, 2940, 1610, -391, 319, -6
2990, 27, 969, 234, 210, 1680, 1260, -390, 334, -4
2991, 29, 971, 231, 70, 1750, 1190, -390, 328, -10
2992, 36, 972, 232, 70, 1190, 980, -382, 328, -10
2993, 39, 971, 230, 0, 1820, 980, -387, 325, -7
2994, 39, 971, 229, 210, 2800, 910, -388, 330, -12
2995, 33, 971, 229, 350, 3080, 910, -385, 327, -18
2996, 27, 972, 229, 350, 3080, 840, -394, 325, -10
2997, 21, 974, 227, 350, 2730, 770, -393, 328, -12
2998, 15, 975, 226, 140, 1050, 490, -372, 325, -15
2999, 15, 974, 225, -70, 350, 420, -393, 334, -4
3000, 23, 973, 228, -70, -140, 350, -388, 325, -6
3001, 26, 972, 226, -210, 70, 420, -390, 328, -18
3002, 30, 973, 228, -70, 350, 420, -384, 330, -7
3003, 25, 974, 230, 70, 770, 560, -376, 327, -9
3004, 16, 973, 227, 0, 1050, 630, -379, 333, -7
3005, 17, 974, 230, 0, 280, 560, -382, 327, -18
3006, 14, 974, 227, -140, 140, 560, -385, 336, -6
3007, 21, 973, 231, -140, -1050, 420, -381, 327, -13
3008, 25, 971, 230, -280, -1330, 350, -382, 328, -6
3009, 29, 971, 231, -210, -980, 420, -382, 319, -18
3010, 29, 971, 230, -280, -1050, 420, -390, 334, -7
3011, 31, 972, 232, -280, -700, 490, -382, 328, -4
3012, 30, 972, 230, -210, -420, 490, -376, 331, -9
3013, 29, 972, 229, -140, -700, 420, -382, 333, -10
3014, 28, 973, 229, -210, -420, 420, -382, 331, -10
3015, 29, 972, 229, -140, -980, 280, -382, 328, -7
3016, 30, 972, 230, -280, -630, 350, -391, 327, -12
3017, 34, 973, 230, -280, -770, 210, -382, 324, -10
3018, 32, 972, 227, -210, -910, 140, -382, 321, -7
3019, 35, 973, 231, -140, -700, 140, -382, 325, -7
3020, 30, 971, 226, -210, -630, 140, -391, 330, -4
3021, 36, 972, 231, -140, -840, 0, -385, 319, -10
3022, 35, 972, 231, -70, -840, -140, -388, 327, -6
3023, 29, 971, 227, -210, -140, -70, -378, 333, -12
3024, -123, 965, 82, 1400, -11130, -1260, -399, 328, -9
3025, -46, 869, 21, 11060, -91700, 5530, -393, 336, -4
3026, 318, 1067, 577, 1050, -6020, 5950, -390, 334, -9
3027, 189, 920, 235, 3850, -1400, 20160, -396, 328, -7
3028, -116, 1061, 235, -2380, 70, 16660, -390, 330, -4
3029, 75, 967, 238, -1400, 3360, -980, -388, 328, -12
3030, 115, 973, 285, -2590, 23030, 1540, -397, 330, -9
3031, 33, 971, 228, -3850, 30030, 3220, -391, 328, -10
3032, -101, 971, 121, -2730, 17010, 1890, -381, 330, -9
3033, -18, 974, 187, 1540, -21630, -2800, -390, 327, -3
3034, 51, 974, 249, 1610, -17080, -2590, -399, 327, -16
3035, -3, 991, 231, 2030, -16520, -5110, -384, 328, -7
3036, 133, 946, 260, 350, 4340, -10570, -390, 336, -7
3037, 29, 969, 213, -420, 9520, -2520, -391, 330, -13
3038, 66, 969, 242, 0, 6230, 210, -388, 333, -4
3039, 10, 972, 202, -70, 9310, 1890, -396, 325, -9
3040, 22, 970, 209, 350, 1680, 3360, -393, 328, -7
3041, 47, 975, 232, -70, 3780, 2870, -396, 333, -12
3042, 81, 957, 234, -980, 5950, 7490, -387, 328, -10
3043, 74, 961, 227, -2310, 7070, 16100, -384, 325, -9
3044, 81, 964, 237, -3150, 10360, 19670, -384, 331, -3
3045, 66, 982, 251, -2310, 19530, 18270, -391, 336, -3
3046, 73, 991, 270, -4970, 28000, 15680, -390, 327, -3
3047, 70, 989, 267, -6930, 39690, 10290, -403, 334, 1
3048, 54, 980, 242, -8050, 47040, 7000, -388, 327, -12
3049, 11, 983, 210, -8820, 43120, 4340, -390, 334, 0
3050, 52, 955, 218, -3500, 20230, 490, -381, 334, -10
3051, 85, 960, 259, -2450, 20580, 2310, -391, 339, -3
3052, 35, 964, 219, -2520, 22190, 2800, -388, 331, -7
3053, -9, 964, 170, -1680, 20790, 2730, -388, 337, 15
3054, 3, 975, 287, 630, -3290, -700, -390, 328, -1
3055, 31, 976, 236, -560, 2590, 0, -390, 336, -1
3056, -18, 969, 177, 420, -7420, -980, -390, 334, -1
3057, 9, 956, 184, 2310, -25760, -1400, -393, 328, -3
3058, 73, 964, 260, 2730, -28840, 420, -391, 328, -4
3059, 43, 962, 220, -350, 2450, 1890, -391, 336, -3
3060, 22, 958, 186, 1540, -21000, 6020, -391, 333, -7
3061, 86, 973, 268, 1610, -18830, 5810, -397, 333, -4
3062, 99, 989, 304, 1050, -5320, 6440, -394, 330, -1
3063, 161, 979, 364, -2520, 36050, 3920, -399, 345, -4
3064, 69, 974, 250, 4270, -30800, -4550, -385, 327, -7
3065, 117, 972, 298, 1470, -10360, -1960, -384, 339, -4
3066, 114, 976, 300, -1050, 7490, 280, -394, 333, -6
3067, 34, 967, 211, -2030, 15820, 770, -396, 331, -6
3068, 52, 968, 228, 210, 7770, 630, -390, 333, -10
3069, 50, 969, 226, 700, 6720, 280, -406, 337, 6
3070, 59, 971, 238, 770, 6790, -140, -393, 333, 0
3071, 51, 971, 233, 420, 8120, -840, -391, 334, 4
3072, 65, 966, 238, 280, 7490, -840, -387, 339, 3
3073, 67, 967, 246, -630, 8540, 280, -390, 330, 1
3074, 44, 969, 228, -770, 7630, 70, -390, 340, -3
3075, 49, 968, 232, -490, 5110, -350, -399, 334, 7
3076, 42, 967, 224, -140, 1540, -70, -384, 321, -4
3077, 42, 967, 227, 630, -2380, -70, -394, 337, -3
3078, 46, 966, 228, 2170, -12110, -560, -393, 330, -9
3079, 55, 966, 236, 2660, -12530, -840, -393, 334, -1
3080, 38, 972, 226, 2800, -14420, -1330, -388, 336, -3
3081, 43, 974, 231, 2870, -16870, -3010, -388, 327, -1
3082, 35, 972, 218, 3290, -24990, -4690, -396, 330, -6
3083, 45, 971, 225, 3990, -27510, -5040, -387, 336, 6
3084, 40, 977, 230, 4550, -26180, -6300, -393, 328, -7
3085, 65, 980, 255, 4690, -21840, -9590, -399, 327, 0
3086, 68, 975, 248, 3570, -13650, -9450, -396, 334, -7
3087, 86, 966, 249, 2590, -5390, -9100, -397, 331, -13
3088, 81, 964, 243, 1260, 2660, -3640, -397, 337, -7
3089, 78, 971, 256, -210, 11550, -350, -397, 336, -3
3090, 67, 975, 255, -1960, 20160, 840, -391, 342, 0
3091, 47, 973, 239, -3220, 25410, 1400, -388, 331, -3
3092, 49, 971, 237, -3780, 32270, 3080, -391, 336, -1
3093, 28, 968, 217, -3710, 31360, 3570, -385, 327, -3
3094, 56, 961, 231, -3500, 25830, 5530, -388, 331, 3
3095, 51, 967, 233, -3640, 25620, 8400, -397, 336, -3
3096, -6, 980, 198, -350, 11550, 5740, -384, 340, -15
3097, 75, 975, 269, -770, 15470, 3640, -384, 325, 7
3098, 52, 973, 243, -1540, 20790, 3080, -394, 336, 7
3099, 65, 972, 248, -2380, 25410, 3780, -396, 327, 1
3100, -2, 976, 196, -2100, 21490, 2870, -385, 336, 10
3101, 71, 956, 231, -490, 14350, 3570, -384, 328, 6
3102, 143, 941, 172, 1750, 8050, 13160, -390, 339, -1
3103, 90, 955, 245, 3080, 6510, 24710, -393, 333, 9
3104, -142, 1016, 243, 2450, 3430, 20790, -391, 331, 3
3105, -10, 991, 212, 630, -840, 1680, -396, 339, 10
3106, 114, 975, 298, 3570, -28420, -3010, -396, 337, 1
3107, 60, 978, 258, 1400, -6090, -1680, -385, 336, 10
3108, 28, 974, 217, 1820, -9730, -2660, -387, 336, 13
3109, 42, 975, 235, 1960, -6930, -2030, -399, 337, 4
3110, 56, 967, 232, 1750, -7070, -1050, -381, 333, 6
3111, 67, 965, 235, 1610, -6160, 1680, -393, 330, 10
3112, 53, 971, 229, 1820, -4340, 3500, -394, 330, 7
3113, 58, 971, 236, 2240, -2240, 3150, -385, 337, 9
3114, 51, 972, 232, 2520, 70, 2800, -393, 330, 12
3115, 41, 974, 224, 1890, -700, -770, -399, 333, 0
3116, 27, 980, 221, 2660, -1470, -3010, -397, 342, 3
3117, 13, 983, 213, 2170, -7070, -6230, -390, 328, 10
3118, 20, 975, 208, 3360, -11060, -9520, -393, 334, 1
3119, 25, 977, 214, 4970, -14630, -12950, -391, 337, 6
3120, 86, 952, 232, 3430, -17290, -4480, -399, 337, 3
3121, 84, 960, 236, 5740, -11830, 980, -397, 334, 0
3122, 74, 983, 259, 3150, -6160, 4060, -390, 339, 6
3123, 81, 972, 250, -1050, -140, 6930, -391, 339, 3
3124, 38, 974, 217, -3360, 350, 13020, -394, 336, -1
3125, 29, 989, 231, -490, 4270, 5810, -397, 331, 10
3126, 46, 972, 224, -140, 3780, 770, -390, 337, -1
3127, 42, 970, 214, 70, 1820, 840, -393, 328, 7
3128, 37, 974, 212, 770, -2730, -140, -394, 334, 1
3129, 51, 977, 221, 3570, -7280, -3290, -393, 339, 6
