Time [mS], AccX [mg],AccY [mg],AccZ [mg],GyroX [mdps],GyroY [mdps],GyroZ [mdps],MagX [mgauss],MagY [mgauss],MagZ [mgauss]
44974, 126, 983, 165, -770, -1680, -16380, -406, 327, -237
44975, 105, 959, 180, -560, -1190, -13370, -405, 325, -229
44976, 94, 958, 156, -3360, -1890, -9240, -403, 333, -222
44977, 94, 945, 203, -70, -1260, -4410, -409, 333, -223
44978, 112, 975, 157, -3360, -700, -560, -411, 327, -234
44979, 142, 997, 173, 1400, -1470, 9730, -405, 325, -229
44980, 88, 1004, 179, 840, -1470, 6650, -411, 330, -219
44981, 94, 996, 190, -770, -1330, 1540, -391, 336, -240
44982, 134, 1010, 180, -3430, -1120, 350, -400, 336, -223
44983, 104, 988, 186, -6090, -210, 1120, -409, 328, -240
44984, 100, 972, 174, -5460, -140, 560, -402, 333, -226
44985, 101, 969, 174, -4900, -140, 490, -400, 331, -237
44986, 105, 965, 170, -3500, -70, 2030, -408, 327, -228
44987, 115, 965, 177, -2590, 70, 5880, -408, 334, -223
44988, 135, 967, 183, -5390, 350, 19320, -414, 324, -238
44989, 123, 974, 176, -6020, 490, 24150, -402, 337, -232
44990, 106, 982, 174, -4620, 1050, 22680, -405, 330, -238
44991, 98, 988, 178, -4060, 1400, 17430, -420, 336, -231
44992, 99, 985, 180, -3990, 1260, 11690, -402, 331, -219
44993, 103, 976, 176, -5180, 980, 8750, -400, 328, -223
44994, 114, 973, 181, -4690, 280, 6860, -406, 324, -229
44995, 123, 970, 183, -4130, 70, 5390, -412, 340, -231
44996, 124, 971, 185, -3220, 210, 3640, -406, 328, -231
44997, 124, 968, 188, -1190, 350, 1960, -402, 331, -238
44998, 134, 967, 190, -350, 490, 2800, -403, 327, -225
44999, 139, 973, 193, -140, 910, 4130, -418, 330, -232
45000, 148, 972, 192, -630, 1400, 5390, -415, 333, -223
45001, 164, 970, 195, -1190, 1960, 8120, -414, 343, -229
45002, 193, 957, 198, -4620, 4480, 21630, -411, 327, -229
45003, 187, 956, 188, -5320, 5880, 30520, -417, 334, -229
45004, 176, 961, 176, -4900, 5670, 37450, -411, 330, -219
45005, 158, 980, 165, -1960, 5390, 39620, -426, 337, -220
45006, 55, 1133, 131, 5320, 6440, 36820, -418, 331, -219
45007, 186, 935, 217, 10290, 2660, 13160, -424, 345, -220
45008, 173, 945, 168, 4340, 3920, 1330, -426, 337, -225
45009, 227, 933, 212, 3640, 3570, -14700, -430, 339, -217
45010, 163, 1097, 186, 630, 5390, -18410, -430, 336, -213
45011, 273, 1243, 221, -13440, 11270, 8050, -421, 337, -216
45012, 103, 1136, 101, -10920, 8610, 23730, -423, 337, -231
45013, 339, 1017, 322, -3710, 6440, 24920, -421, 342, -223
45014, 333, 1105, 80, -14560, 7490, 55650, -426, 343, -219
45015, 282, 1087, 275, -10850, 1820, 77350, -433, 348, -216
45016, 79, 552, 645, 22470, -4830, -47110, -426, 354, -225
45017, 166, 950, 261, 10080, -280, -26740, -436, 339, -216
45018, 152, 989, 281, 5040, 1330, -66570, -430, 348, -216
45019, 264, 742, 334, -4760, 2590, -56700, -430, 351, -217
45020, 281, 770, 244, -8470, 3150, -62370, -417, 346, -226
45021, 368, 442, 122, -4340, 5810, -43050, -418, 345, -216
45022, 236, 951, 307, -210, 5530, -13860, -412, 330, -226
45023, 122, 956, 224, -980, 6160, -11970, -412, 340, -232
45024, 131, 957, 217, -910, 5670, -12110, -415, 337, -226
45025, 115, 972, 221, -980, 4200, -12040, -412, 336, -229
45026, 91, 974, 217, -980, 3500, -11900, -414, 339, -214
45027, 97, 972, 217, -1120, 3220, -11900, -414, 340, -228
45028, 90, 964, 216, -1120, 2870, -11620, -412, 348, -231
45029, 91, 964, 215, -1050, 2870, -11340, -415, 336, -223
45030, 83, 960, 218, -840, 3010, -10430, -414, 331, -231
45031, 78, 967, 213, -700, 3010, -10010, -406, 339, -225
45032, 72, 971, 213, -770, 3080, -9590, -412, 339, -225
45033, 66, 970, 210, -700, 2940, -9240, -411, 339, -234
45034, 60, 972, 208, -770, 2660, -8820, -403, 348, -223
45035, 61, 971, 206, -770, 2030, -7980, -406, 319, -232
45036, 68, 968, 207, -700, 1610, -7560, -406, 342, -223
45037, 64, 969, 207, -700, 1610, -7070, -406, 339, -220
45038, 65, 971, 205, -490, 1540, -6650, -403, 339, -220
45039, 63, 974, 202, -490, 1610, -5810, -394, 340, -235
45040, 59, 974, 200, -420, 1330, -5390, -402, 336, -225
45041, 65, 974, 201, -420, 1050, -4970, -396, 333, -231
45042, 59, 974, 201, -490, 1050, -4550, -399, 337, -231
45043, 63, 973, 203, -420, 980, -4130, -399, 333, -234
45044, 62, 972, 203, -210, 980, -3360, -405, 339, -229
45045, 60, 972, 205, -280, 770, -3010, -402, 328, -228
45046, 62, 973, 206, -210, 630, -2590, -408, 334, -225
45047, 61, 974, 207, -140, 630, -2170, -394, 327, -225
45048, 62, 974, 208, -140, 630, -1820, -405, 339, -223
45049, 81, 955, 201, -140, 1400, -630, -408, 322, -229
45050, 2, 969, 233, 350, 420, 140, -399, 328, -222
45051, 107, 955, 218, 70, 1400, 770, -399, 330, -228
45052, -38, 993, 198, 210, -840, 1400, -399, 330, -237
45053, -38, 978, 255, 140, 280, 2520, -402, 331, -231
45054, 7, 962, 274, 700, 2450, 3710, -399, 337, -226
45055, -55, 929, 301, 1610, 4900, 5740, -409, 336, -232
45056, -35, 913, 270, 2030, 4830, 8050, -400, 336, -232
45057, -83, 956, 252, 1960, 700, 9660, -403, 334, -228
45058, -66, 1013, 233, 350, -4970, 10990, -408, 331, -220
45059, 54, 992, 237, -280, -6440, 10850, -417, 339, -232
45060, 122, 967, 236, -350, -7070, 10990, -409, 336, -223
45061, 211, 944, 239, 210, -7070, 10920, -412, 339, -232
45062, 240, 929, 254, 1190, -3640, 10220, -400, 346, -226
45063, 219, 979, 221, 2030, -840, 9240, -403, 337, -235
45064, 265, 993, 222, 1470, 1470, 7700, -405, 334, -229
45065, 254, 992, 185, 490, 1890, 5950, -400, 333, -223
45066, 337, 975, 187, -560, 280, 4060, -412, 345, -228
45067, 328, 956, 179, -1260, 560, 70, -403, 334, -225
45068, 290, 947, 176, -910, 1960, -1680, -412, 340, -228
45069, 297, 945, 161, -350, 4270, -3570, -411, 339, -226
45070, 259, 959, 140, 70, 4970, -5180, -403, 337, -231
45071, 258, 981, 128, 140, 5110, -6720, -411, 336, -235
45072, 197, 995, 122, -630, 3360, -9170, -406, 328, -222
45073, 167, 989, 128, -1050, 2590, -10080, -409, 337, -231
45074, 147, 980, 135, -1330, 2730, -11060, -409, 343, -222
45075, 143, 954, 158, -1120, 2380, -11550, -406, 337, -229
45076, 138, 925, 177, 0, 3570, -11690, -405, 333, -225
45077, 91, 963, 203, 420, 4620, -11270, -399, 333, -228
45078, 60, 1023, 210, 420, 5810, -10780, -400, 349, -222
45079, 52, 1057, 217, -70, 7280, -10290, -394, 325, -232
45080, 69, 1044, 225, -700, 8400, -9520, -403, 337, -219
45081, 66, 928, 222, -1330, 6650, -8820, -408, 340, -235
45082, 48, 893, 222, -1120, 3360, -9100, -411, 331, -229
45083, 55, 904, 228, -700, -560, -9870, -402, 339, -231
45084, 89, 954, 236, -420, -3570, -10850, -399, 337, -226
45085, 139, 992, 245, -280, -4970, -11690, -402, 325, -228
45086, 191, 983, 251, -700, -1750, -12250, -394, 331, -232
45087, 177, 965, 247, -910, 2170, -12250, -402, 342, -226
45088, 135, 955, 245, -1050, 6160, -12040, -402, 327, -243
45089, 83, 957, 244, -980, 8680, -11970, -403, 331, -238
45090, 41, 962, 244, -630, 7560, -11690, -388, 330, -231
45091, 17, 962, 238, -350, 5390, -11480, -397, 331, -225
45092, 24, 955, 238, -140, 3710, -11200, -396, 325, -228
45093, 24, 964, 236, -70, 3150, -10780, -396, 334, -237
45094, 24, 980, 236, -210, 3010, -10430, -393, 325, -220
45095, 32, 986, 233, -770, 2730, -9660, -394, 328, -232
45096, 40, 984, 229, -980, 2450, -9310, -390, 327, -241
45097, 41, 970, 230, -980, 2240, -8890, -397, 328, -237
45098, 40, 954, 233, -840, 2520, -8610, -396, 321, -232
45099, 36, 956, 233, -490, 3150, -8260, -396, 324, -231
45100, 35, 968, 228, -140, 4690, -7560, -382, 325, -229
45101, 38, 958, 225, -70, 5250, -7140, -388, 333, -238
45102, 30, 973, 220, -70, 5810, -6650, -390, 337, -240
45103, 14, 986, 221, -140, 6160, -6160, -387, 324, -241
45104, 7, 984, 221, -350, 6090, -5320, -391, 321, -231
45105, 1, 974, 218, -350, 5320, -4900, -394, 328, -235
45106, 2, 965, 216, -280, 4480, -4550, -394, 327, -226
45107, 5, 969, 218, -70, 3640, -4130, -394, 316, -231
45108, 13, 973, 220, 70, 3080, -3780, -390, 327, -229
45109, 16, 968, 221, 0, 2030, -3290, -391, 321, -228
45110, 24, 957, 208, -140, 2170, -3010, -393, 334, -231
45111, 28, 983, 205, 0, 3640, -2520, -390, 325, -228
45112, 32, 995, 218, 140, 5320, -1960, -384, 319, -229
45113, 41, 990, 214, 140, 6580, -1470, -387, 319, -225
45114, 30, 1008, 206, 0, 6370, -980, -396, 318, -226
45115, 14, 971, 172, -140, 4130, -1190, -384, 321, -234
45116, 46, 959, 200, 0, 2520, -1470, -385, 315, -234
45117, 48, 964, 212, -70, 2240, -1820, -391, 322, -231
45118, 83, 999, 206, 70, 3570, -1890, -378, 318, -229
45119, 103, 979, 199, -70, 5880, -1680, -394, 324, -238
45120, 72, 977, 199, 280, 8890, -1610, -385, 318, -231
45121, 104, 968, 221, 280, 12250, -1330, -396, 322, -228
45122, 68, 987, 211, 420, 15330, -1260, -385, 330, -231
45123, 64, 989, 211, 630, 21000, -1190, -381, 322, -225
45124, 131, 990, 187, 490, 21280, -1120, -387, 319, -225
45125, 44, 970, 197, 630, 23520, -1540, -399, 324, -220
45126, 115, 947, 239, 700, 24710, -1540, -379, 322, -223
45127, 67, 971, 200, 770, 25340, -2030, -379, 324, -226
45128, 15, 956, 233, 1050, 22540, -3010, -385, 318, -216
45129, 23, 953, 225, 700, 17920, -3570, -381, 321, -219
45130, -13, 976, 190, 420, 13020, -4410, -385, 318, -219
45131, 0, 980, 196, 140, 7910, -4970, -387, 315, -222
45132, 14, 978, 219, -140, 1330, -5810, -388, 324, -219
45133, 28, 992, 222, -140, 0, -5950, -391, 318, -219
45134, 75, 990, 227, -210, 280, -5880, -381, 316, -216
45135, 63, 981, 219, -210, 1820, -5880, -382, 316, -216
45136, 74, 970, 227, -210, 3570, -5880, -381, 322, -220
45137, 57, 966, 223, -210, 7420, -5950, -385, 316, -231
45138, 44, 971, 222, 0, 9380, -5880, -391, 325, -214
45139, 28, 972, 224, 70, 10710, -5600, -378, 316, -222
45140, 1, 981, 217, 210, 11410, -5180, -378, 331, -222
45141, -14, 978, 220, 280, 11760, -4830, -378, 324, -222
45142, -40, 970, 214, 210, 10360, -3920, -384, 322, -217
45143, -52, 979, 209, 70, 9240, -3430, -381, 319, -222
45144, -52, 976, 210, 0, 7700, -3010, -378, 324, -211
45145, -57, 981, 204, -70, 5950, -2520, -388, 319, -225
45146, -54, 982, 201, -140, 2590, -1610, -376, 330, -214
45147, -51, 969, 208, -140, 910, -1120, -378, 319, -222
45148, -47, 976, 208, -70, 630, -560, -390, 325, -223
45149, -28, 979, 218, 70, 1470, 210, -375, 319, -225
45150, 7, 986, 221, 280, 3850, 980, -384, 315, -214
45151, 43, 983, 217, 420, 9800, 2380, -385, 312, -211
45152, 35, 978, 214, 280, 12250, 2800, -384, 327, -211
45153, 27, 978, 210, 280, 14630, 3010, -381, 324, -219
45154, 28, 972, 211, 280, 16170, 3220, -379, 319, -219
45155, 33, 974, 211, 350, 17290, 3290, -379, 318, -211
45156, 2, 976, 201, 630, 17080, 3430, -379, 321, -211
45157, -15, 971, 202, 630, 15750, 3500, -375, 318, -216
45158, -34, 971, 203, 700, 14280, 3500, -379, 318, -210
45159, -32, 979, 210, 630, 12460, 3500, -379, 324, -213
45160, -10, 985, 214, 490, 9170, 3710, -375, 310, -214
45161, -11, 981, 213, 210, 7000, 3710, -372, 315, -210
45162, -2, 982, 212, -70, 4340, 3640, -381, 324, -213
45163, -6, 982, 215, -350, 2170, 3430, -375, 316, -210
45164, 5, 981, 220, -420, 420, 3220, -381, 324, -210
45165, 28, 977, 226, -210, -630, 3010, -385, 324, -214
45166, 34, 974, 229, -210, -420, 3010, -387, 316, -198
45167, 37, 975, 226, -210, -210, 3010, -381, 322, -214
45168, 21, 975, 226, -350, -70, 3010, -378, 325, -204
45169, 14, 985, 225, -350, -280, 3010, -378, 321, -214
45170, 12, 984, 225, -770, -770, 3010, -378, 319, -207
45171, 18, 973, 226, -770, -1610, 3010, -379, 327, -207
45172, 20, 971, 223, -770, -2240, 3010, -385, 316, -211
45173, 21, 966, 223, -770, -2940, 3010, -384, 316, -211
45174, 22, 972, 221, -770, -4130, 2800, -387, 327, -214
45175, 21, 984, 219, -770, -4480, 2730, -376, 319, -213
45176, 15, 990, 221, -770, -4550, 2800, -388, 316, -204
45177, 3, 991, 221, -840, -4410, 2940, -379, 324, -211
45178, -11, 985, 222, -910, -4340, 3360, -388, 321, -222
45179, -38, 976, 218, -1050, -3850, 4760, -382, 315, -213
45180, -47, 971, 219, -1120, -3850, 5600, -376, 316, -205
45181, -45, 961, 215, -1120, -4060, 6440, -381, 321, -211
45182, -36, 956, 210, -1120, -4340, 7140, -388, 318, -205
45183, -28, 959, 203, -980, -6090, 8120, -379, 334, -216
45184, -17, 958, 183, -980, -7140, 8400, -397, 330, -211
45185, 0, 967, 175, -1120, -8400, 8610, -390, 319, -207
45186, 9, 981, 161, -1190, -9380, 8680, -385, 324, -211
45187, 28, 978, 159, -1050, -10150, 8820, -385, 325, -214
45188, 45, 982, 159, -770, -10430, 9030, -385, 321, -210
45189, 44, 980, 154, -490, -10150, 9030, -387, 325, -217
45190, 55, 971, 157, -350, -9800, 9100, -391, 330, -205
45191, 53, 970, 154, -210, -9170, 9170, -396, 328, -214
45192, 60, 966, 160, -140, -8540, 9240, -397, 321, -216
45193, 62, 983, 169, -210, -7070, 9520, -384, 325, -217
45194, 55, 990, 173, -140, -6300, 9660, -393, 319, -217
45195, 57, 978, 177, -70, -5810, 9870, -397, 337, -217
45196, 51, 968, 176, 140, -5110, 9940, -382, 324, -223
45197, 52, 965, 177, 420, -4480, 10290, -396, 328, -213
45198, 50, 965, 179, 420, -4410, 10500, -396, 327, -210
45199, 48, 974, 181, 490, -4270, 10640, -394, 331, -219
45200, 50, 981, 182, 490, -4270, 10850, -387, 328, -205
45201, 45, 984, 186, 490, -4480, 11130, -393, 333, -217
45202, 45, 966, 195, 770, -4830, 11550, -391, 331, -219
45203, 47, 961, 199, 980, -4970, 11690, -394, 339, -202
45204, 52, 960, 206, 1050, -5320, 11900, -397, 327, -217
45205, 58, 959, 210, 1190, -5670, 12110, -397, 331, -216
45206, 65, 963, 209, 1190, -6090, 12110, -409, 328, -211
45207, 115, 1016, 211, 700, -7490, 11620, -399, 331, -214
45208, 153, 998, 230, 630, -8190, 10710, -403, 336, -219
45209, 202, 956, 247, 700, -9170, 9310, -399, 327, -210
45210, 230, 923, 250, 980, -10290, 7700, -393, 330, -214
45211, 234, 922, 243, 630, -10640, 5670, -397, 334, -205
45212, 178, 955, 243, 420, -9030, 5530, -402, 333, -211
45213, 126, 971, 263, 350, -6020, 5670, -405, 339, -214
45214, 79, 982, 291, 630, -1680, 6370, -409, 331, -228
45215, 9, 1010, 295, 1190, 3640, 7700, -408, 337, -214
45216, -23, 983, 317, 2100, 8820, 10150, -403, 330, -222
45217, 2, 905, 327, 2450, 6580, 10430, -403, 336, -207
45218, 28, 884, 331, 2450, 2030, 10010, -403, 334, -222
45219, 72, 932, 321, 1960, -3780, 9450, -412, 337, -211
45220, 115, 990, 323, 980, -8540, 8960, -397, 336, -211
45221, 169, 986, 348, -420, -8400, 8820, -406, 333, -210
45222, 188, 962, 360, -420, -4060, 8890, -412, 334, -214
45223, 174, 951, 357, 70, 1120, 9100, -406, 340, -208
45224, 158, 937, 352, 700, 5460, 9310, -414, 334, -210
45225, 122, 926, 345, 1400, 9240, 9800, -412, 339, -213
45226, 72, 951, 340, 1330, 8960, 10010, -403, 336, -202
45227, 61, 981, 336, 980, 6930, 9940, -414, 345, -199
45228, 52, 997, 333, 350, 3360, 9660, -417, 340, -211
45229, 66, 998, 336, -420, -1190, 9240, -412, 328, -214
45230, 97, 980, 341, -1820, -10080, 8400, -418, 345, -205
45231, 94, 964, 346, -2240, -13230, 8120, -412, 331, -217
45232, 85, 944, 346, -2450, -15890, 7910, -418, 334, -216
45233, 79, 926, 346, -2520, -18340, 7560, -417, 342, -213
45234, 84, 919, 346, -2310, -20580, 7210, -423, 342, -207
45235, 92, 920, 351, -2310, -24780, 6650, -411, 340, -213
45236, 93, 914, 353, -2380, -27230, 6440, -418, 337, -226
45237, 104, 910, 351, -2450, -29400, 6090, -418, 334, -225
45238, 128, 910, 356, -2520, -30730, 5740, -424, 352, -214
45239, 193, 904, 379, -2520, -26040, 5810, -417, 349, -213
45240, 203, 888, 383, -2310, -21000, 6090, -418, 339, -222
45241, 192, 879, 381, -2030, -16100, 6510, -412, 336, -222
45242, 179, 875, 385, -1750, -12110, 6930, -414, 348, -210
45243, 157, 869, 386, -1470, -9380, 7350, -418, 346, -220
45244, 117, 858, 382, -700, -7490, 7910, -417, 355, -217
45245, 112, 854, 391, -280, -7420, 8120, -417, 349, -220
45246, 107, 858, 386, 210, -7630, 8260, -420, 342, -231
45247, 108, 869, 387, 700, -8050, 8400, -421, 342, -217
45248, 111, 890, 396, 1190, -8750, 8610, -421, 355, -225
45249, 132, 955, 384, 2240, -9590, 9170, -418, 349, -220
45250, 145, 978, 382, 2520, -9660, 9380, -423, 352, -220
45251, 152, 976, 371, 2730, -9520, 9660, -423, 355, -223
45252, 163, 942, 368, 2660, -9310, 9870, -417, 348, -223
45253, 177, 877, 345, 2030, -8960, 10010, -424, 340, -223
45254, 174, 854, 342, 1470, -9100, 9870, -427, 351, -214
45255, 182, 834, 338, 980, -9380, 9520, -430, 355, -229
45256, 184, 853, 329, 420, -9730, 9030, -424, 349, -226
45257, 198, 888, 337, -70, -9450, 8610, -421, 351, -223
45258, 203, 922, 365, -210, -6510, 7980, -424, 348, -223
45259, 187, 951, 377, 770, -3990, 7980, -424, 357, -231
45260, 169, 991, 374, 2380, -2030, 8260, -427, 355, -222
45261, 135, 1022, 338, 4410, -2310, 8540, -429, 354, -228
45262, 133, 990, 317, 5950, -4480, 8820, -426, 348, -234
45263, 122, 908, 261, 6650, -11830, 8330, -421, 357, -223
45264, 132, 958, 243, 5740, -15330, 7630, -433, 352, -219
45265, 149, 1021, 232, 4060, -18270, 6650, -426, 357, -228
45266, 166, 1042, 226, 1890, -21280, 5670, -430, 354, -225
45267, 227, 965, 239, -2590, -22960, 4060, -435, 352, -243
45268, 265, 893, 254, -4270, -21700, 3500, -435, 366, -228
45269, 265, 849, 254, -5110, -19110, 3080, -424, 357, -225
45270, 275, 874, 255, -5180, -15680, 2660, -427, 360, -226
45271, 286, 977, 263, -4690, -12180, 2380, -429, 360, -228
45272, 306, 1186, 307, -3220, -2800, 2380, -433, 354, -220
45273, 308, 1192, 305, -2660, 420, 2170, -436, 361, -222
45274, 300, 1129, 275, -2170, 910, 1750, -435, 358, -232
45275, 290, 1005, 262, -1820, 350, 1050, -430, 360, -235
45276, 295, 930, 242, -1400, -350, 210, -429, 357, -243
45277, 315, 983, 207, -630, 3430, -1120, -432, 360, -226
45278, 322, 960, 205, -1050, 7350, -1610, -436, 364, -226
45279, 310, 886, 213, -2030, 10640, -2310, -445, 364, -223
45280, 291, 813, 229, -3430, 12670, -3290, -438, 361, -232
45281, 258, 751, 229, -5250, 14210, -5040, -429, 364, -225
45282, 229, 726, 232, -5250, 13230, -5460, -438, 361, -228
45283, 189, 722, 250, -4830, 10780, -5880, -432, 360, -226
45284, 175, 820, 276, -3920, 7350, -6440, -418, 354, -229
45285, 170, 1013, 304, -2240, 4340, -7140, -429, 360, -228
45286, 220, 1554, 274, 2030, 2730, -7350, -424, 352, -219
45287, 222, 1470, 235, 2660, 2030, -7140, -438, 355, -232
45288, 186, 1134, 221, 1750, -910, -7560, -433, 358, -223
45289, 187, 902, 212, 0, -5460, -8890, -429, 357, -226
45290, 206, 871, 203, -1610, -7700, -11270, -426, 355, -216
45291, 197, 805, 197, -2380, -4830, -11410, -429, 363, -225
45292, 186, 689, 207, -2240, -2100, -11340, -429, 358, -223
45293, 165, 648, 211, -2380, -770, -11410, -436, 355, -234
45294, 167, 785, 207, -2870, -1120, -11900, -426, 355, -217
45295, 205, 1386, 217, -2870, -1190, -11970, -426, 348, -225
45296, 201, 1503, 237, -2520, -840, -11760, -432, 351, -226
45297, 178, 1397, 227, -2310, -1260, -11760, -427, 351, -228
45298, 155, 1156, 204, -2100, -2100, -11900, -429, 349, -223
45299, 162, 887, 190, -2170, -2240, -12110, -426, 351, -226
45300, 166, 539, 223, -2170, 1470, -11900, -420, 342, -226
45301, 148, 527, 228, -1820, 4270, -11200, -427, 345, -232
45302, 95, 568, 222, -1260, 6230, -10080, -420, 363, -229
45303, 43, 613, 229, -770, 6510, -8820, -424, 349, -229
45304, 2, 657, 247, -490, 1750, -7000, -421, 343, -237
45305, -6, 818, 302, 210, -1190, -6300, -427, 349, -226
45306, 12, 952, 334, 1400, -2870, -5460, -421, 337, -229
45307, 24, 1055, 337, 2940, -3570, -4200, -427, 348, -228
45308, 41, 1075, 310, 4340, -3780, -2870, -421, 346, -231
45309, 59, 1103, 253, 3430, -4130, -840, -427, 348, -223
45310, 69, 1258, 232, 840, -6230, -770, -424, 345, -231
45311, 80, 1382, 223, -2730, -9100, -1050, -423, 345, -220
45312, 120, 1339, 250, -6720, -11200, -1330, -417, 343, -229
45313, 118, 1146, 259, -10150, -11690, -1680, -427, 337, -228
45314, 154, 714, 276, -12600, -10010, -1540, -427, 348, -231
45315, 142, 634, 292, -10360, -8540, -980, -414, 339, -235
45316, 100, 764, 296, -5880, -6230, -280, -418, 337, -232
45317, 80, 1020, 263, -420, -3780, 1190, -421, 354, -237
45318, 39, 1208, 223, 6090, 280, 4550, -420, 349, -235
45319, 18, 1292, 142, 5040, -700, 5390, -418, 348, -225
45320, 75, 1136, 171, 1540, -4060, 5180, -426, 349, -240
45321, 122, 983, 179, -2310, -8120, 4270, -421, 343, -240
45322, 209, 945, 172, -5040, -10290, 3710, -423, 336, -234
45323, 180, 880, 168, -7840, -7000, 4760, -418, 343, -232
45324, 140, 692, 196, -9240, -4550, 5040, -427, 346, -231
45325, 138, 580, 213, -10570, -3010, 4690, -418, 345, -243
45326, 127, 597, 230, -11340, -2100, 3920, -429, 342, -238
45327, 131, 680, 248, -11130, -1890, 3360, -415, 342, -234
45328, 99, 691, 344, -8120, -5530, 3640, -418, 351, -240
45329, 103, 769, 352, -5600, -8960, 4060, -412, 342, -240
45330, 137, 1088, 312, -2590, -11130, 4760, -421, 334, -240
45331, 210, 1550, 268, -210, -10710, 5670, -423, 339, -238
45332, 178, 1684, 266, 1540, -8820, 5390, -423, 340, -243
45333, 172, 1313, 274, 1750, -9590, 3780, -426, 345, -247
45334, 200, 1009, 199, 2030, -11270, 2800, -423, 351, -235
45335, 172, 597, 177, 2310, -11690, 2240, -429, 339, -241
45336, 185, 268, 183, 2310, -12320, 1890, -427, 346, -249
45337, 171, 402, 172, 2450, -11900, 910, -424, 352, -243
45338, 144, 629, 173, 2380, -10220, 1120, -424, 346, -247
45339, 143, 764, 194, 1820, -8890, 1890, -427, 342, -253
45340, 121, 856, 221, 350, -7420, 2310, -430, 345, -244
45341, 155, 1023, 277, -1750, -8120, 2450, -430, 345, -241
45342, 192, 1349, 408, -5250, -10780, 1190, -427, 348, -250
45343, 184, 1327, 439, -4760, -11690, 560, -421, 349, -243
45344, 177, 1157, 412, -2870, -13300, 350, -435, 342, -250
45345, 107, 880, 349, -210, -15400, 70, -426, 342, -241
45346, 73, 418, 261, 5180, -20440, -630, -429, 340, -247
45347, 146, 581, 234, 7490, -21980, -840, -430, 348, -255
45348, 137, 925, 227, 8330, -20650, -840, -430, 343, -237
45349, 159, 1284, 233, 7210, -20440, -350, -430, 345, -246
45350, 141, 1512, 258, 3640, -21770, -490, -436, 348, -246
45351, 201, 1380, 278, -5040, -25270, -2590, -426, 348, -252
45352, 286, 1428, 269, -7840, -23730, -3290, -432, 348, -255
45353, 262, 1306, 262, -9590, -19320, -3360, -433, 337, -253
45354, 319, 917, 280, -10500, -15470, -3010, -432, 340, -249
45355, 257, 602, 295, -10220, -10780, -3150, -438, 348, -268
45356, 177, 788, 280, -6370, -5040, -3780, -421, 339, -243
45357, 159, 747, 269, -4340, -2590, -3290, -426, 348, -261
45358, 104, 616, 288, -3150, -210, -2940, -435, 357, -262
45359, 135, 514, 305, -2800, 350, -2730, -429, 345, -270
45360, 125, 694, 288, -2170, -630, -2590, -420, 358, -274
45361, 71, 973, 280, -1400, -910, -1820, -421, 349, -262
45362, 101, 1232, 287, -1330, -2310, -560, -432, 345, -276
45363, 126, 1411, 343, -2730, -4550, 210, -433, 355, -256
45364, 193, 1489, 381, -4970, -6510, 350, -430, 354, -271
45365, 215, 1166, 355, -7350, -7560, -840, -432, 351, -268
45366, 161, 955, 307, -6720, -6020, -910, -435, 351, -264
45367, 183, 715, 315, -5390, -5600, -700, -439, 357, -261
45368, 144, 516, 332, -3640, -6160, -630, -432, 355, -258
45369, 147, 538, 325, -840, -6720, -840, -430, 352, -264
45370, 89, 1093, 265, 5950, -7840, -490, -439, 354, -271
45371, 71, 1225, 225, 6650, -7980, 560, -436, 343, -258
45372, 106, 1110, 213, 4620, -10780, 840, -435, 355, -256
45373, 80, 979, 246, 420, -16660, -280, -427, 351, -259
45374, 192, 1134, 223, -6440, -26880, -3850, -429, 358, -253
45375, 250, 1201, 194, -7840, -25970, -3990, -429, 351, -264
45376, 237, 1130, 215, -9100, -24290, -3570, -426, 355, -261
45377, 195, 879, 303, -10640, -24640, -3990, -429, 351, -259
45378, 216, 774, 370, -10360, -25060, -5670, -445, 339, -258
45379, 179, 1221, 230, -1820, -22680, -7630, -439, 346, -270
45380, 102, 1075, 194, 3220, -20440, -6860, -442, 355, -262
45381, 148, 772, 211, 5880, -20510, -6300, -429, 348, -262
45382, 110, 523, 216, 5950, -22680, -6720, -436, 346, -261
45383, 147, 469, 206, 5250, -27860, -7910, -435, 337, -265
45384, 79, 821, 166, 7000, -33320, -9800, -433, 348, -264
45385, 91, 864, 178, 8330, -30380, -9310, -435, 348, -267
45386, 182, 927, 221, 8330, -24570, -8540, -432, 348, -274
45387, 265, 1124, 242, 6930, -17290, -7910, -433, 346, -273
45388, 285, 1254, 277, 630, -6510, -7070, -432, 333, -270
45389, 272, 1120, 273, -1960, -3640, -7000, -441, 340, -267
45390, 233, 1063, 241, -3850, -1750, -6580, -430, 337, -259
45391, 255, 1070, 206, -5320, 1400, -5880, -435, 339, -276
45392, 194, 1112, 210, -7070, 3500, -4900, -432, 343, -273
45393, 38, 920, 303, -11900, 3080, -5460, -433, 340, -268
45394, 29, 757, 301, -13790, 3220, -6720, -433, 333, -267
45395, 16, 640, 264, -14490, 2030, -7280, -435, 333, -277
45396, -13, 573, 264, -14140, -1120, -7490, -427, 336, -282
45397, -39, 624, 313, -12880, -14490, -7700, -429, 337, -279
45398, -35, 1161, 383, -7000, -22050, -7770, -433, 336, -277
45399, 26, 1492, 303, -3290, -24430, -7350, -441, 340, -286
45400, 94, 1396, 323, -910, -26320, -5880, -435, 337, -283
45401, 225, 1014, 311, 140, -24850, -5040, -435, 340, -286
45402, 289, 814, 282, 2590, -17290, -3570, -429, 346, -288
45403, 180, 918, 239, 4900, -10430, -1890, -427, 334, -285
45404, 159, 853, 210, 6860, -1470, 0, -436, 331, -286
45405, 36, 627, 234, 7980, 3500, 1750, -435, 346, -289
45406, 52, 520, 246, 8330, 5040, 1890, -421, 336, -282
45407, 19, 910, 191, 8820, -4130, 1680, -436, 337, -280
45408, -56, 995, 160, 8190, -11270, 2240, -429, 327, -283
45409, -36, 932, 169, 6300, -16940, 2030, -432, 337, -282
45410, 5, 803, 243, 3780, -23660, 980, -433, 337, -276
45411, 124, 1022, 268, 1190, -27720, -1190, -429, 339, -279
45412, 406, 1912, 164, 0, -21070, 210, -432, 342, -285
45413, 380, 1707, 227, -2590, -12740, 2730, -436, 340, -280
45414, 354, 1143, 321, -6510, -6090, 3150, -433, 331, -289
45415, 232, 771, 295, -9800, -4620, 2170, -433, 339, -285
45416, 74, 774, 168, -10570, -420, -490, -427, 336, -285
45417, 63, 703, 180, -10080, 3010, -910, -441, 342, -285
45418, 78, 522, 215, -10640, 4200, -1190, -426, 340, -297
45419, 133, 419, 244, -11620, 4620, -2100, -445, 351, -286
45420, 129, 475, 292, -11550, 2800, -2730, -432, 342, -300
45421, 40, 896, 266, -6020, -4340, -2310, -429, 340, -298
45422, 23, 1130, 308, -3150, -8330, -1750, -432, 343, -297
45423, -5, 1267, 335, -1750, -12180, -1260, -441, 343, -294
45424, 190, 1386, 370, -1330, -15050, -1680, -433, 348, -294
45425, 189, 1457, 354, 1120, -12390, -1820, -439, 345, -300
45426, 163, 1056, 237, 4480, -9660, -1050, -442, 343, -295
45427, 211, 808, 218, 7910, -8400, 0, -438, 348, -294
45428, 51, 664, 170, 10080, -7350, 840, -433, 339, -297
45429, 110, 587, 144, 10220, -6440, 1260, -436, 352, -303
45430, 122, 682, 152, 6090, -8610, 420, -429, 345, -295
45431, 65, 939, 134, 3710, -11340, 140, -442, 348, -297
45432, 159, 1201, 131, 980, -13790, 490, -426, 339, -289
45433, 169, 1523, 114, -2730, -14140, 1610, -429, 342, -292
45434, 306, 1679, 151, -7980, -11480, 2520, -442, 351, -297
45435, 326, 1117, 415, -17990, -8050, 1050, -432, 348, -294
45436, 238, 1007, 425, -16870, -7910, -350, -435, 343, -300
45437, 180, 1044, 289, -11480, -4900, -630, -441, 346, -303
45438, -13, 1005, 194, -5390, -1260, 630, -436, 354, -292
45439, 127, 713, 177, -2450, 700, 1890, -429, 346, -300
45440, 255, 455, 211, -3990, -3780, 490, -441, 348, -297
45441, 195, 1240, 124, -4900, -6160, -350, -439, 334, -298
45442, 267, 1781, 59, -6580, -4410, 770, -441, 340, -297
45443, 132, 1528, 154, -10080, -280, 2240, -438, 331, -301
45444, 187, 401, 385, -18130, 2240, -700, -436, 343, -309
45445, 320, 325, 430, -15890, 5180, -2870, -441, 334, -301
45446, 97, 564, 340, -6790, 11130, -3080, -436, 345, -298
45447, 91, 619, 194, 4620, 14210, -1330, -435, 327, -301
45448, -65, 417, 149, 14210, 17010, 1260, -436, 336, -298
45449, 164, 847, 142, 18060, 12180, 4200, -438, 336, -298
45450, 352, 1762, 87, 13230, 1890, 5390, -441, 330, -295
45451, 315, 1997, 161, 6440, -2940, 6020, -436, 348, -301
45452, 240, 1539, 272, -840, -7490, 6720, -435, 336, -300
45453, 164, 471, 381, -8260, -980, 3080, -439, 327, -291
45454, 140, 418, 327, -5740, 8470, 1890, -438, 333, -291
45455, 81, 568, 252, -630, 14980, 2800, -429, 333, -310
45456, 89, 706, 235, 4550, 18060, 3920, -441, 340, -303
45457, 189, 981, 203, 7490, 13930, 5320, -438, 343, -300
45458, 282, 1526, 227, 1820, -6440, 6440, -436, 337, -294
45459, 152, 1238, 249, -3640, -14770, 5180, -439, 340, -291
45460, 238, 927, 366, -6720, -18550, 3710, -439, 337, -301
45461, 234, 960, 368, -6440, -11340, 2100, -441, 345, -306
45462, 310, 984, 297, -3920, -1120, 2800, -427, 337, -295
45463, 195, 949, 230, -280, 9380, 4060, -436, 328, -298
45464, 169, 855, 270, -1960, 4410, 2590, -433, 340, -300
45465, 238, 891, 279, -4060, -4480, 840, -435, 340, -301
45466, 249, 1054, 256, -5460, -10150, -630, -444, 339, -297
45467, 176, 746, 235, -8120, -9030, -1610, -432, 333, -301
45468, 226, 435, 260, -10010, -7420, -2940, -447, 342, -294
45469, 258, 400, 249, -11620, -4060, -4760, -441, 339, -306
45470, 318, 655, 232, -11970, -700, -5320, -447, 328, -303
45471, 246, 957, 231, -11900, 3990, -5110, -438, 333, -307
45472, 81, 1068, 495, -11760, 2310, -6300, -438, 336, -309
45473, 201, 1054, 573, -9100, -490, -7630, -442, 333, -306
45474, 271, 1432, 476, -3080, 1120, -8120, -435, 336, -321
45475, 198, 1566, 286, 3430, 2100, -5740, -441, 333, -312
45476, 117, 1115, 204, 7210, 3710, -3290, -441, 333, -301
45477, 162, 632, 210, 5320, -3780, -3360, -435, 340, -307
45478, 253, 1052, 234, 2380, -7070, -3850, -433, 339, -316
45479, 191, 1254, 224, 350, -4690, -3640, -439, 334, -313
45480, 154, 1127, 236, -1050, -1540, -2240, -441, 343, -312
45481, 134, 738, 249, -3640, 5250, -2520, -439, 343, -319
45482, 142, 795, 210, -5180, 8610, -3360, -447, 345, -319
45483, 207, 989, 174, -6160, 12250, -2660, -438, 348, -315
45484, 326, 1220, 143, -7840, 16940, -1470, -438, 343, -316
45485, 326, 1383, 183, -11410, 19040, 0, -432, 342, -316
45486, 261, 808, 358, -21350, 17850, -420, -438, 342, -315
45487, 233, 250, 594, -20720, 19670, -1680, -441, 345, -312
45488, 149, 721, 500, -10080, 26810, -2450, -433, 340, -306
45489, 125, 1799, 299, 4970, 37660, 910, -433, 333, -306
45490, 49, 1860, 166, 16590, 44590, 6230, -436, 334, -306
45491, -120, -5, 159, 17920, 18200, 8890, -426, 348, -313
45492, -35, -211, 260, 12250, -4130, 4900, -426, 337, -301
45493, 14, 243, 213, 10780, -12460, 1260, -423, 336, -301
45494, 57, 596, 135, 14210, -8610, 3150, -439, 337, -292
45495, -28, 68, 118, 19740, -3010, 7980, -426, 343, -292
45496, 4, 136, 165, 17150, -10080, 7140, -438, 340, -289
45497, 60, 1312, 116, 13090, -20580, 6510, -439, 343, -289
45498, 278, 2506, 171, 7630, -25410, 7140, -435, 342, -292
45499, 196, 2498, 275, -70, -28280, 8750, -438, 343, -294
45500, 89, 848, 609, -15400, -31500, 4760, -433, 339, -309
45501, 285, 915, 522, -14210, -23380, 2870, -438, 343, -297
45502, 224, 1550, 305, -7140, -8050, 5460, -433, 331, -304
45503, 220, 1479, 203, -350, 4900, 10220, -438, 336, -304
45504, 42, 663, 221, 1820, 8540, 13370, -441, 327, -303
45505, 112, 669, 247, -5950, -4620, 10220, -439, 339, -306
45506, 215, 1115, 203, -7630, -7490, 8610, -445, 330, -303
45507, 127, 1033, 167, -6720, -6580, 10360, -447, 340, -306
45508, 128, 554, 187, -5460, -4200, 12180, -442, 339, -306
45509, 68, 300, 341, -5670, -10710, 10290, -451, 336, -298
45510, 101, 1203, 313, -4130, -11690, 8540, -444, 340, -310
45511, 243, 1899, 251, -2100, -9520, 9520, -450, 340, -309
45512, 248, 1480, 374, -910, -8680, 10780, -444, 337, -304
45513, 295, 714, 435, -280, -13720, 10780, -441, 340, -307
45514, 278, 338, 200, 2660, -15330, 9030, -450, 343, -304
45515, 170, 410, 215, 7980, -9240, 9240, -442, 343, -310
45516, 218, 743, 244, 14700, -3990, 9590, -451, 333, -303
45517, 117, 1121, 186, 19390, -3080, 9800, -445, 342, -315
45518, 232, 1128, 133, 20370, -17290, 8330, -448, 336, -300
45519, 326, 905, 166, 11270, -27160, 6230, -445, 340, -306
45520, 360, 1096, 205, 5390, -28700, 2800, -453, 339, -306
45521, 454, 1320, 205, 1260, -27300, 630, -448, 351, -300
45522, 438, 1329, 188, -1820, -21350, -980, -451, 348, -307
45523, 384, 638, 263, -7280, -13860, -3850, -457, 342, -312
45524, 375, 437, 216, -8610, -10850, -5670, -450, 343, -307
45525, 306, 602, 168, -7700, -3710, -7490, -447, 337, -307
45526, 302, 832, 301, -5250, 2170, -7840, -447, 345, -315
45527, 319, 1250, 380, -1610, 7000, -8890, -447, 346, -315
45528, 346, 2074, 236, 1960, 5880, -8470, -451, 346, -315
45529, 431, 1590, 260, 350, 5390, -8330, -447, 346, -310
45530, 435, 1040, 273, -1400, 8330, -9240, -457, 340, -313
45531, 498, 727, 245, -2030, 15330, -9730, -447, 346, -318
45532, 346, 740, 132, 490, 34440, -9240, -441, 339, -312
45533, 216, 526, 98, 70, 40040, -9030, -436, 348, -303
45534, 227, 360, 144, -1540, 38850, -9730, -441, 342, -318
45535, 175, 482, 120, -2800, 38220, -10500, -442, 348, -313
45536, 244, 755, 85, -3290, 37030, -9870, -447, 345, -310
45537, 248, 814, 309, -3780, 30030, -6370, -439, 346, -312
45538, 197, 1080, 413, -210, 24990, -5530, -444, 346, -300
45539, 205, 1618, 277, 5390, 23100, -3220, -442, 345, -303
45540, 117, 1469, 90, 9800, 26600, 0, -439, 351, -292
45541, 62, 704, 109, 11340, 27930, 3290, -439, 342, -304
45542, 82, 165, 184, 8890, 23590, 2170, -439, 351, -291
45543, 139, 643, 151, 11480, 24920, 1260, -435, 337, -294
45544, 68, 1120, 35, 14630, 26180, 3570, -436, 334, -285
45545, 57, 1232, 16, 14770, 22750, 5740, -430, 345, -282
45546, -138, 1505, 49, -1120, -12530, 2450, -435, 342, -283
45547, 288, 2014, 283, -11340, -23520, -560, -441, 334, -291
45548, 467, 1361, 382, -17570, -21140, -2100, -433, 337, -294
45549, 408, 322, 409, -17430, -10290, -2030, -439, 343, -292
45550, 297, -19, 410, -10290, 7840, -1260, -433, 342, -294
45551, 63, 690, 128, 8050, 40600, 3640, -438, 333, -301
45552, 97, 770, 57, 12320, 44520, 7210, -436, 339, -285
45553, 79, 818, 70, 10780, 41440, 9100, -427, 333, -289
45554, 187, 966, 147, 5390, 29680, 10430, -442, 339, -289
45555, 296, 1128, 265, 420, 18270, 10290, -433, 340, -291
45556, 278, 1184, 301, -1680, 15890, 12880, -438, 340, -288
45557, 235, 840, 406, -1260, 20370, 13930, -436, 349, -288
45558, 129, 657, 496, 1400, 23590, 12950, -442, 348, -283
45559, 165, 1114, 404, 7490, 25550, 12950, -436, 343, -286
45560, 149, 1499, 140, 16730, 25130, 16240, -436, 336, -282
45561, -3, 469, 216, 14770, 16870, 15750, -433, 346, -285
45562, 105, 435, 277, 9520, 3080, 13790, -438, 340, -274
45563, 337, 980, 311, 5320, -5180, 10290, -438, 337, -279
45564, 368, 1384, 256, 3780, -7140, 10080, -435, 345, -283
45565, 104, 952, 231, -280, -10360, 9450, -445, 331, -282
45566, 123, 1026, 227, -5530, -15400, 6650, -438, 339, -276
45567, 220, 1440, 224, -10710, -21280, 3780, -436, 348, -276
45568, 318, 1668, 226, -15120, -21910, 2100, -444, 355, -280
45569, 347, 1151, 266, -18480, -21700, 1820, -445, 342, -291
45570, 384, 296, 383, -19110, -6230, 2030, -448, 345, -286
45571, 300, 375, 391, -14980, 9310, 3500, -444, 334, -289
45572, 260, 702, 406, -7770, 22820, 6300, -448, 336, -286
45573, 129, 1124, 346, -350, 32200, 8890, -442, 336, -291
45574, 43, 1147, 240, 3640, 22540, 12810, -439, 343, -285
45575, 21, 621, 204, 280, 8890, 12390, -444, 349, -286
45576, 156, 482, 252, -2800, -210, 10920, -447, 343, -295
45577, 201, 735, 246, -3570, -770, 9660, -445, 342, -297
45578, 195, 881, 226, -3290, 630, 9240, -448, 340, -288
45579, 105, 665, 259, -3220, -4550, 7980, -438, 361, -297
45580, 149, 872, 255, -3570, -9030, 7560, -442, 345, -292
45581, 276, 996, 344, -3290, -10500, 7700, -444, 346, -298
45582, 319, 1321, 421, 490, -11130, 9170, -451, 351, -288
45583, 371, 1742, 366, 5110, -6930, 11060, -450, 349, -288
45584, 129, 1000, 270, 8750, -9030, 13440, -450, 348, -295
45585, 182, 741, 252, 8120, -14000, 12390, -450, 352, -285
45586, 203, 702, 250, 6930, -10500, 10220, -454, 355, -301
45587, 306, 571, 266, 6720, -6650, 9450, -445, 349, -294
45588, 189, 427, 193, 8540, 2240, 8330, -447, 360, -280
45589, 213, 611, 200, 8260, 3780, 7840, -441, 357, -280
45590, 223, 722, 219, 6860, -210, 7980, -453, 351, -277
45591, 293, 801, 253, 4550, -5320, 7770, -459, 364, -286
45592, 260, 879, 271, 2030, -10360, 7980, -444, 354, -289
45593, 283, 889, 313, -2730, -10430, 7770, -453, 352, -285
45594, 345, 976, 327, -4620, -4900, 7910, -453, 354, -279
45595, 418, 1373, 293, -7070, 4550, 8190, -459, 358, -288
45596, 465, 1580, 361, -10780, 15050, 9170, -462, 355, -262
45597, 416, 1235, 452, -14980, 24150, 9800, -454, 354, -283
45598, 304, 739, 677, -7350, 30940, 10780, -453, 354, -276
45599, 60, 1173, 345, 4340, 33250, 13230, -463, 354, -289
45600, -43, 993, 169, 13440, 27930, 16800, -444, 346, -280
45601, -104, 264, 203, 15820, 16170, 17710, -457, 346, -279
45602, 270, 975, 251, 5670, -24500, 11060, -451, 342, -273
45603, 434, 2446, 171, 2030, -32760, 9870, -451, 346, -295
45604, 501, 2552, 201, -1540, -32900, 11060, -468, 352, -279
45605, 318, 1319, 415, -6580, -35700, 10990, -463, 358, -274
45606, 297, 193, 501, -11340, -35700, 7980, -462, 354, -280
45607, 393, 775, 219, -6440, -2800, 6300, -463, 352, -285
45608, 440, 1033, 143, -980, 16940, 9310, -463, 352, -291
45609, 365, 855, 206, -70, 26180, 11760, -465, 354, -286
45610, 337, 848, 295, -4970, 21700, 11830, -459, 351, -283
45611, 369, 1235, 380, -10780, 11620, 10080, -451, 349, -282
45612, 345, 1141, 454, -10710, 14140, 8960, -463, 360, -292
45613, 343, 251, 386, -5740, 16870, 8470, -466, 348, -292
45614, -114, -80, 325, -980, 18830, 6440, -463, 345, -289
45615, 149, -63, 381, 3780, 17150, 3990, -454, 351, -280
45616, 72, 651, 158, 17290, 11690, -140, -465, 340, -286
45617, -124, 703, 51, 21000, 7770, -1750, -459, 351, -292
45618, -92, 497, 88, 19740, -6860, -2100, -468, 354, -280
45619, 92, 805, 69, 15260, -22540, -4200, -465, 355, -277
45620, 463, 1733, 96, 9100, -48510, -2590, -456, 360, -285
45621, 518, 2410, 288, -2800, -74550, 4340, -475, 354, -286
45622, 473, 1568, 418, -8610, -69720, 4620, -466, 360, -282
45623, 126, 585, 397, -12810, -58450, 2800, -463, 346, -295
45624, 532, 410, 335, -12040, -41370, 350, -465, 358, -283
45625, 266, 864, 254, -8330, 0, 980, -463, 361, -286
45626, 85, 346, 215, -3780, 11270, 770, -475, 357, -286
45627, 231, 311, 238, -4270, 13580, 420, -468, 366, -298
45628, 130, 487, 239, -4550, 17220, -350, -475, 357, -289
45629, 248, 731, 256, -2240, 15750, 630, -475, 349, -291
45630, 233, 1353, 343, 7070, -70, 4270, -462, 366, -288
45631, 200, 1826, 227, 10010, -19460, 5950, -471, 369, -283
45632, 275, 2179, 105, 8470, -33810, 7840, -474, 375, -285
45633, 240, 1703, 165, 1890, -44170, 7560, -469, 366, -285
45634, 187, 975, 295, -6440, -51450, 4060, -478, 360, -277
45635, 502, 878, 249, -12670, -35280, -2590, -468, 364, -285
45636, 551, 1053, 236, -10010, -12250, -1610, -484, 358, -285
45637, 518, 501, 235, -8330, 7070, -420, -469, 363, -283
45638, 502, -162, 287, -8190, 17360, -1540, -471, 360, -289
45639, 294, -100, 290, -6580, 34370, -4830, -468, 361, -286
45640, 192, 640, 101, -2800, 42630, -4830, -466, 363, -279
45641, 504, 1151, 176, -1190, 38780, -3010, -472, 355, -288
45642, 378, 1248, 301, -4060, 27300, -2310, -460, 358, -286
45643, 576, 1143, 447, -9310, 4410, -1680, -474, 352, -298
45644, 564, 976, 734, -6090, 7560, -1540, -462, 354, -282
45645, 356, 876, 628, 5180, 31430, 280, -456, 354, -291
45646, 193, 722, 355, 17500, 43190, 3780, -463, 348, -282
45647, 35, 642, 316, 24990, 47320, 5880, -460, 345, -279
45648, 240, 528, 323, 25900, 39480, 7070, -459, 349, -279
45649, 432, 457, 360, 21490, 27790, 7910, -466, 343, -285
45650, 270, 740, 331, 22540, 30730, 10220, -454, 354, -273
45651, 320, 1226, 269, 23730, 30800, 13300, -463, 352, -276
45652, 39, 1608, 270, 20440, 29470, 14980, -469, 360, -268
45653, 241, 1585, 393, 4620, 6510, 13090, -460, 352, -273
45654, 320, 1469, 380, -1540, -6440, 11480, -466, 361, -271
45655, 139, 1026, 352, -4060, -10780, 10780, -463, 352, -274
45656, 314, 413, 409, -3640, -13090, 11200, -471, 355, -270
45657, 153, 336, 299, -2590, -10150, 10990, -469, 346, -268
45658, 218, 241, 219, -1750, -9660, 11060, -475, 357, -271
45659, 183, 108, 259, -1120, -15050, 10780, -469, 358, -267
45660, 48, 371, 150, 210, -19810, 8820, -471, 358, -273
45661, 228, 1253, 133, 280, -28630, 8330, -480, 361, -270
45662, 223, 2313, 32, -3430, -37590, 6580, -474, 357, -270
45663, 497, 2274, 553, -20650, -57750, 1470, -472, 354, -283
45664, 556, 1905, 764, -23520, -51590, -1960, -481, 358, -288
45665, 741, 1267, 471, -19320, -31780, -4200, -472, 366, -297
45666, 152, 487, 193, -12320, -14210, -3010, -475, 366, -283
45667, 351, -3, 165, -5740, -140, -5810, -475, 363, -288
45668, 353, -157, 204, -5950, -3010, -9590, -478, 366, -280
45669, 227, 150, 179, -4200, 1120, -14420, -465, 361, -288
45670, 183, 342, 169, 140, 2660, -15120, -478, 369, -285
45671, 191, 373, 139, 5950, 8890, -16660, -468, 354, -283
45672, 266, 372, 257, 15680, 6440, -20300, -480, 358, -292
45673, 366, 1656, 51, 19530, -420, -19180, -475, 355, -276
45674, 852, 2676, -43, 18760, -15820, -13650, -469, 363, -268
45675, 726, 2277, 173, 13510, -34230, -9170, -459, 352, -270
45676, 517, 1466, 235, 4340, -46060, -7630, -472, 357, -270
45677, 456, 1035, 217, -7840, -29330, -12390, -472, 357, -274
45678, 340, 1074, 163, -7350, -7700, -13720, -462, 363, -280
45679, 257, 607, 141, -5250, 12390, -13300, -471, 351, -279
45680, 248, 129, 149, -3780, 28980, -13650, -463, 351, -288
45681, 212, 903, 38, -5390, 42980, -12670, -466, 346, -292
45682, 379, 1184, 22, -7140, 44520, -9800, -468, 349, -286
45683, 376, 1051, 118, -9100, 39550, -6510, -463, 345, -292
45684, 240, 898, 153, -11830, 35490, -4130, -463, 339, -274
45685, 227, 970, 210, -14560, 30590, -2590, -457, 358, -280
45686, 298, 1073, 334, -17920, 31640, -490, -459, 349, -282
45687, 265, 732, 344, -15680, 32620, 140, -459, 340, -286
45688, 113, 621, 286, -12670, 35560, 2590, -453, 340, -297
45689, 158, 277, 373, -7280, 32340, 4340, -463, 343, -282
45690, 5, 84, 397, 1610, 27860, 5180, -456, 345, -282
45691, -27, 1118, 83, 25130, 18900, 11060, -457, 351, -286
45692, -164, 1084, -30, 30450, 7560, 15190, -462, 349, -277
45693, -233, 840, -76, 27790, -8890, 16240, -469, 348, -285
45694, -29, 1345, 27, 19040, -32060, 15120, -459, 354, -282
45695, 457, 2434, 198, -1890, -56350, 12670, -463, 358, -277
45696, 255, 1557, 218, -9100, -60830, 12040, -469, 352, -279
45697, 37, 357, 294, -13020, -58520, 10570, -463, 360, -286
45698, 257, -184, 281, -13020, -52780, 7420, -468, 348, -285
45699, 157, -90, 204, -9450, -44240, 5670, -474, 358, -297
45700, 119, 1352, 5, -3290, -29610, 6440, -472, 355, -291
45701, 469, 1692, 146, -6580, -27930, 7070, -471, 355, -285
45702, 283, 1783, 389, -11830, -30660, 6230, -468, 358, -289
45703, 537, 1656, 361, -16450, -35980, 3570, -474, 364, -292
45704, 205, 1482, 175, -16800, -33390, 2590, -484, 367, -298
45705, 261, 990, 247, -14630, -7490, 4060, -477, 366, -301
45706, 644, 151, 358, -14140, 280, 3500, -477, 366, -291
45707, 320, -64, 253, -12810, 11060, 490, -477, 364, -289
45708, 591, 312, 235, -9030, 11620, -70, -475, 357, -292
45709, 186, 173, 162, 1120, 7700, -3220, -480, 357, -289
45710, -15, 66, 192, 4550, 1610, -6580, -478, 367, -303
45711, 190, 221, 209, 7350, -12250, -10710, -474, 352, -279
45712, 214, 1009, 121, 9660, -24430, -14280, -477, 355, -300
45713, 568, 1672, 76, 9870, -39340, -14350, -475, 360, -295
45714, 496, 1739, 248, 7140, -58450, -17430, -478, 351, -289
45715, 517, 2260, 244, 4200, -53690, -20790, -478, 357, -289
45716, 883, 1722, 305, -700, -40670, -22540, -474, 346, -294
45717, 537, 369, 336, -4620, -28560, -25060, -477, 351, -292
45718, 647, -342, 366, -4550, -13510, -28630, -472, 345, -295
45719, 528, 382, 115, 3710, 22400, -31290, -471, 346, -300
45720, 332, 333, 96, 7770, 30520, -30450, -469, 357, -294
45721, 510, 373, 167, 9170, 31780, -30380, -463, 343, -295
45722, 488, 1284, 170, 7420, 31570, -29400, -465, 351, -294
45723, 599, 2458, 339, -4830, 33670, -27720, -460, 342, -294
45724, 693, 1658, 468, -11760, 39410, -29330, -462, 345, -289
45725, 549, 1340, 315, -15190, 50400, -30170, -450, 343, -303
45726, 734, 1436, 301, -16310, 64750, -30310, -453, 345, -298
45727, 455, 1050, 310, -14980, 76230, -28350, -444, 337, -295
45728, 140, 402, 140, -9100, 90440, -23870, -454, 340, -295
45729, 450, 102, 165, -7560, 93100, -21980, -439, 342, -303
45730, 7, 44, 49, -5600, 94570, -21000, -444, 337, -295
45731, 156, 102, 93, -3010, 94640, -18690, -430, 331, -286
45732, -206, 78, 149, 1470, 90930, -15050, -436, 339, -292
45733, -171, 650, 67, 16520, 69930, -12110, -427, 334, -286
45734, -54, 867, -72, 21070, 55230, -7490, -429, 339, -283
45735, -162, 725, 2, 20930, 39620, -4130, -436, 340, -288
45736, 210, 1255, 131, 17220, 18480, -1960, -430, 339, -282
45737, 378, 1769, 312, 3710, -13160, -1820, -427, 345, -283
45738, 32, 1083, 390, 2170, -15260, -3010, -436, 348, -283
45739, 7, 568, 285, 6860, -11270, -3990, -439, 352, -285
45740, -114, 1016, 7, 15400, -4200, -3570, -430, 349, -288
45741, 5, 1461, -137, 20160, -1120, -490, -430, 346, -276
45742, 178, 861, 101, 13300, -12180, 1680, -439, 355, -273
45743, 140, 1650, 38, 5950, -25200, -1400, -426, 349, -274
45744, 259, 2408, 29, -1470, -36260, -4200, -438, 355, -274
45745, 135, 1934, 121, -8960, -41580, -6090, -441, 349, -277
45746, 304, 822, 293, -17010, -34930, -12530, -430, 346, -273
45747, 397, -59, 148, -15120, -24080, -14840, -426, 337, -279
45748, 152, 306, -13, -10710, -11900, -14980, -432, 343, -279
45749, 245, 296, 19, -6510, -2240, -13650, -435, 345, -285
45750, 139, 38, 115, -4550, 4760, -13510, -433, 343, -280
45751, 166, 793, 177, -70, 9310, -16030, -427, 343, -282
45752, 303, 2034, 199, 2660, 9030, -14630, -429, 337, -276
45753, 296, 2717, 268, 3290, 6580, -12110, -426, 331, -285
45754, 409, 2433, 406, 700, 3290, -10780, -427, 343, -285
45755, 403, 1624, 377, -3500, 350, -12670, -424, 334, -289
45756, 279, 661, 194, -4480, 10570, -17780, -423, 336, -276
45757, 257, 451, 30, -1540, 21910, -17150, -433, 334, -286
45758, 110, 264, -5, 910, 29400, -16170, -433, 339, -270
45759, 159, 13, 107, 630, 30730, -16730, -427, 331, -282
45760, 23, 20, 101, -1190, 19390, -20440, -429, 334, -289
45761, -19, 557, -79, 0, 13160, -20930, -429, 330, -285
45762, 15, 541, -25, 210, 6860, -19180, -418, 325, -279
45763, 36, 490, 175, -910, 2450, -17360, -420, 333, -286
45764, 146, 746, 407, -1260, -5810, -15960, -417, 327, -282
45765, 145, 2477, 276, 10780, -14280, -12950, -411, 322, -291
45766, 40, 2277, 272, 16870, -7490, -9800, -415, 330, -279
45767, -21, 1824, 301, 19740, 630, -8120, -418, 328, -276
45768, 110, 1677, 162, 17430, 6860, -8680, -408, 327, -271
45769, 177, 1539, 94, 10710, 5600, -10010, -409, 324, -283
45770, 297, 400, 169, 3500, -2030, -15190, -412, 328, -277
45771, 333, 306, 150, 3430, 350, -16590, -415, 324, -279
45772, 208, 444, 73, 3640, 3430, -16940, -414, 333, -273
45773, 186, 565, 53, 3850, 6860, -17150, -409, 331, -298
45774, 158, 774, 61, -980, 9800, -19180, -409, 324, -279
45775, 371, 939, 146, -5600, 9590, -20860, -408, 328, -283
45776, 442, 911, 151, -9800, 8610, -22680, -418, 337, -271
45777, 369, 1240, 95, -13160, 10360, -24500, -412, 331, -285
45778, 338, 1575, 133, -16800, 15540, -25900, -409, 330, -280
45779, 331, 827, 520, -24290, 26320, -29400, -403, 330, -286
45780, 338, 874, 552, -20090, 29260, -32200, -399, 328, -283
45781, 177, 1347, 294, -11410, 31150, -32270, -387, 331, -289
45782, 104, 1233, 124, -3080, 28280, -30100, -399, 334, -294
45783, -27, 574, 210, 980, 24360, -27860, -393, 336, -289
45784, 30, 329, 291, -3780, 11200, -29400, -400, 331, -282
45785, 123, 1181, 154, -1750, 10570, -30870, -391, 333, -286
45786, 95, 1300, 167, 3430, 14280, -30870, -388, 322, -288
45787, 17, 728, 264, 8540, 17360, -29890, -388, 327, -282
45788, 59, 248, 263, 15960, 14630, -29960, -388, 319, -288
45789, 43, 2206, 42, 19740, 14350, -29400, -385, 318, -286
45790, -15, 2333, -45, 19810, 14420, -28140, -393, 312, -283
45791, 56, 1279, 143, 13300, 15330, -27930, -382, 319, -270
45792, 4, 523, 202, 1330, 13160, -28070, -382, 316, -271
45793, 123, 1501, -11, -12040, 9030, -26600, -385, 321, -282
45794, 46, 1057, -10, -9660, 12040, -25830, -375, 303, -280
45795, -4, 149, 92, -7560, 13720, -25620, -379, 312, -288
45796, -8, -295, 154, -10220, 13510, -26950, -381, 309, -279
45797, -72, -66, 119, -14910, 10500, -27510, -382, 306, -280
45798, -95, 843, 0, -13090, 13650, -25900, -370, 307, -279
45799, -16, 302, 416, -7280, 16100, -24920, -376, 312, -291
45800, -45, 114, 692, 2660, 16660, -25060, -366, 295, -277
45801, -44, 1018, 506, 15890, 17710, -24640, -369, 301, -285
45802, -155, 1350, 186, 36330, 25830, -20090, -367, 295, -285
45803, -23, 839, 120, 35770, 26460, -19040, -363, 298, -277
45804, -51, 1095, 106, 24570, 27370, -19670, -364, 304, -271
45805, 51, 2089, 50, 10780, 24220, -18620, -363, 304, -273
45806, 72, 2984, -70, 210, 27510, -16660, -355, 292, -270
45807, -150, 1502, -20, -14910, 39900, -12390, -366, 294, -271
45808, -142, 540, 79, -24290, 38080, -13020, -357, 292, -270
45809, -17, 427, 58, -31150, 37800, -13790, -355, 295, -264
45810, 65, 696, -27, -31290, 36540, -12320, -351, 297, -276
45811, -41, 644, -23, -27020, 38150, -10500, -361, 292, -274
45812, -3, -295, 489, -17500, 28420, -11270, -358, 288, -277
45813, 6, 58, 472, -10640, 21910, -12320, -346, 288, -279
45814, 27, 673, 261, 1260, 22120, -12040, -357, 286, -285
45815, -33, 826, 224, 15260, 23940, -9730, -358, 292, -273
45816, -124, 743, 227, 34720, 23520, -8750, -351, 286, -270
45817, -157, 1500, 80, 34370, 22750, -10500, -364, 291, -267
45818, -152, 2072, 28, 28420, 18690, -11130, -348, 303, -259
45819, -87, 1855, 22, 19810, 16240, -12600, -349, 289, -259
45820, -88, 1054, 25, 11270, 12460, -12810, -354, 283, -259
45821, -5, 732, -13, 1750, 10780, -12320, -351, 289, -265
45822, 28, 1048, -54, 770, 14070, -11480, -346, 286, -253
45823, -98, 1239, -33, -700, 14000, -11200, -348, 277, -264
45824, -37, 1191, 90, -4900, 12740, -13510, -343, 286, -258
45825, -91, 1198, 146, -11410, 8400, -16660, -345, 292, -259
45826, 54, 1533, 224, -16520, 4620, -20090, -346, 294, -264
45827, 102, 1355, 339, -10570, 4340, -20720, -340, 288, -268
45828, 0, 1020, 332, -1190, 5530, -21350, -343, 286, -262
45829, 83, 660, 223, 8330, 8400, -22470, -334, 286, -265
45830, 97, 234, 38, 16800, 9310, -25900, -337, 286, -261
45831, -22, 238, 10, 14980, 7350, -28560, -340, 283, -259
45832, 50, 461, 22, 12110, 4550, -30940, -342, 291, -249
45833, -53, 914, -18, 10010, 4480, -32410, -333, 283, -276
45834, -66, 1295, -18, 8400, 4970, -32970, -330, 280, -255
45835, -141, 1701, 137, -1260, 5810, -35350, -337, 291, -262
45836, -115, 1622, 216, -7490, 5670, -36890, -336, 282, -256
45837, 53, 1553, 231, -8890, 8610, -36750, -327, 279, -262
45838, 45, 1503, 179, -3990, 15330, -34860, -330, 285, -255
45839, -37, 1082, 141, 4130, 19950, -32550, -325, 277, -262
45840, -159, 392, 75, 14070, 17640, -32970, -325, 273, -244
45841, -173, 388, 19, 12670, 15120, -35140, -316, 273, -250
45842, -98, 452, 24, 10010, 13720, -36680, -322, 268, -249
45843, -88, 534, 3, 8610, 14910, -37870, -318, 261, -255
45844, -61, 418, 2, 8190, 15400, -38850, -307, 262, -255
45845, -64, 548, 25, 6510, 13370, -39690, -319, 256, -255
45846, -44, 1098, 34, 3430, 12740, -41580, -316, 264, -241
45847, -59, 1858, 81, -560, 12110, -43820, -316, 253, -255
45848, -38, 2176, 194, -4900, 13160, -46970, -310, 258, -250
45849, 35, 1490, 223, -10290, 15400, -53200, -297, 250, -255
45850, -9, 959, 144, -9450, 16660, -55020, -300, 247, -252
45851, 19, 543, 126, -6160, 16380, -56140, -297, 249, -258
45852, -96, 325, 122, -1610, 17290, -56980, -303, 235, -253
45853, -23, 251, 135, 2660, 18200, -59360, -300, 232, -261
45854, -70, 344, 50, 7700, 17850, -60830, -291, 238, -258
45855, -121, 373, 50, 8820, 19810, -62860, -289, 226, -253
45856, -77, 472, 60, 9730, 21420, -64890, -294, 219, -253
45857, -138, 818, 57, 10850, 23730, -67760, -289, 219, -247
45858, -307, 1805, 55, 10150, 18410, -76650, -271, 210, -247
45859, -119, 1860, 146, 7560, 16100, -81550, -276, 205, -259
45860, 17, 1574, 130, 4550, 15400, -85470, -276, 213, -255
45861, 0, 1144, 47, 2730, 13930, -87710, -268, 193, -258
45862, -56, 692, -8, 2450, 11550, -89040, -273, 195, -262
45863, -120, 336, 2, 2590, 7980, -92610, -258, 186, -264
45864, -130, 317, -6, 1750, 8610, -95270, -264, 189, -270
45865, -104, 370, 11, 1400, 11270, -97790, -268, 184, -268
45866, -50, 383, 37, 2380, 17920, -100380, -253, 171, -288
45867, 3, 330, 92, 7980, 33880, -105000, -250, 174, -273
45868, 12, 445, 114, 11130, 40250, -107590, -249, 159, -267
45869, -53, 720, 86, 13720, 46410, -110950, -247, 154, -267
45870, -164, 1025, 96, 15540, 53620, -115150, -241, 156, -259
45871, -223, 1182, 129, 16730, 61600, -120050, -234, 139, -268
45872, -98, 873, 36, 17990, 73850, -128380, -231, 127, -259
45873, -70, 561, -18, 18620, 77070, -130900, -228, 120, -264
45874, -94, 336, -32, 18900, 77700, -133140, -231, 115, -258
45875, -114, 268, -45, 18900, 76650, -135380, -225, 106, -262
45876, -142, 312, -62, 19320, 75810, -138390, -216, 93, -244
45877, -154, 373, -64, 22540, 80920, -145250, -207, 88, -241
45878, -187, 429, -50, 24710, 84070, -149730, -210, 72, -237
45879, -451, 693, -143, 26110, 84280, -156240, -205, 72, -246
45880, -675, 922, -236, 26040, 75180, -164640, -210, 52, -235
45881, -604, 933, -231, 22120, 55790, -182000, -204, 40, -240
45882, -45, 328, -129, 20790, 53130, -187040, -205, 27, -234
45883, -18, 177, -181, 21560, 54460, -189280, -205, 18, -243
45884, -23, 189, -234, 23660, 54880, -190540, -193, 1, -243
45885, -199, 138, -316, 25620, 55440, -192360, -196, -9, -234
45886, -665, 185, -566, 25550, 45850, -202580, -195, -24, -234
45887, -714, 505, -811, 25760, 45360, -211400, -192, -39, -234
45888, -624, 722, -1678, 34020, 113260, -222110, -192, -51, -231
45889, -700, 414, -2453, 51310, 258790, -226520, -193, -67, -223
45890, -312, -607, -1601, 68390, 314440, -236110, -196, -85, -204
45891, 194, -260, -750, 84280, 280420, -242830, -208, -93, -190
45892, -458, -42, -763, 94150, 280210, -242900, -207, -115, -162
45893, -211, -410, -459, 102270, 266630, -241150, -211, -129, -147
45894, 1042, -189, -237, 110250, 235270, -253680, -225, -159, -133
45895, 402, 167, -2097, -297570, 2119320, 966210, -231, -172, -61
45896, -3997, 448, -3997, 93730, 810390, 798420, -294, -117, 106
45897, -3997, -802, -3997, -76930, 158200, 654360, -276, -91, 94
45898, -3997, 2484, -3997, 126910, 74760, 425040, -336, -85, 147
45899, -3997, 3781, -1994, -13790, -279790, -218190, -267, -87, 76
45900, 3817, -3997, -3997, 115570, -546770, -1185800, -319, -132, 88
45901, 3108, -2270, 3382, 91420, -288190, -570220, -280, -210, -22
45902, 1945, 1009, -2595, 225960, -368760, -616980, -262, -249, -79
45903, 2233, 2079, -1181, 228200, -288540, -198730, -286, -261, -106
45904, 3424, -34, 3997, 229110, -296730, -222810, -264, -303, -144
45905, -2345, -880, -3997, -14770, 55510, 38500, -295, -282, -91
45906, -3997, 1356, -2933, -32480, -47880, 220640, -288, -283, -82
45907, -598, 648, -940, 203490, -453110, 16940, -283, -279, -93
45908, 578, 86, 1777, 21770, -65800, 19460, -267, -279, -114
45909, -364, -284, -2087, -102480, 166250, 350, -279, -270, -102
45910, -713, 592, -1856, 120050, -294490, -4620, -283, -273, -100
45911, 521, 983, 883, 74130, -174020, 7000, -268, -283, -120
45912, -290, 317, 1514, -66010, 161070, -1190, -276, -291, -120
45913, -1909, -549, -1784, -149660, 321020, -3500, -276, -276, -88
45914, -558, 290, -814, 140980, -335440, 350, -283, -270, -93
45915, 733, 458, 1559, 54950, -124180, 4550, -274, -280, -124
45916, -364, -113, 648, -103670, 235550, -350, -274, -280, -102
45917, -1706, -615, -1843, -81550, 181860, -3290, -285, -280, -102
45918, -1646, -211, -1962, 46130, -109340, -490, -273, -277, -112
45919, 16, 272, 508, -11550, 32830, 770, -277, -282, -112
45920, -1039, -151, -269, -69370, 162050, -1890, -274, -274, -109
45921, -1353, -131, -1756, -8540, 20510, -770, -274, -273, -118
45922, -924, 37, -644, 48440, -109550, 1820, -277, -277, -117
45923, -712, -51, -290, -44100, 97510, -910, -270, -285, -108
45924, -1284, -119, -1142, -22470, 46410, -70, -274, -273, -106
45925, -901, -100, -854, 35420, -83720, 1260, -271, -285, -117
45926, -523, 204, 37, 23520, -54320, 210, -265, -271, -106
45927, -730, 29, -120, -26670, 59920, -910, -270, -279, -105
45928, -966, -117, -813, 26670, -58310, 280, -285, -270, -111
45929, -554, 132, -115, 24010, -50680, -70, -270, -279, -118
45930, -753, 86, -116, -20930, 48580, -280, -280, -276, -106
45931, -1097, -80, -1008, -23940, 54040, -280, -271, -276, -111
45932, -1028, -74, -881, 16800, -38780, 140, -273, -288, -123
45933, -660, 75, -153, -13230, 28210, 140, -267, -289, -109
45934, -1031, -70, -692, -20790, 45710, -210, -268, -273, -111
45935, -1010, -76, -927, 6930, -17080, 70, -271, -277, -109
45936, -754, 29, -350, 18900, -41930, 0, -282, -274, -111
45937, -917, -51, -505, -15960, 37240, -140, -264, -282, -117
45938, -991, -28, -799, 1680, -3010, -70, -282, -280, -106
45939, -832, -2, -482, 10500, -23380, 70, -273, -277, -115
45940, -763, 82, -425, 840, -1890, -140, -273, -271, -112
45941, -860, -38, -514, -7910, 17500, -140, -279, -279, -111
45942, -824, -22, -445, 6230, -14490, 70, -273, -276, -117
45943, -803, 47, -490, -1820, 3780, 0, -268, -274, -108
45944, -880, -32, -538, -3920, 9170, -210, -267, -276, -111
45945, -879, -1, -633, 1610, -2940, -140, -277, -271, -111
45946, -828, -14, -410, 4340, -9030, 0, -273, -279, -102
45947, -891, -21, -541, -3920, 8400, 0, -276, -274, -106
45948, -887, 11, -638, 1750, -4060, -140, -270, -274, -105
45949, -831, -10, -469, 3150, -7420, -70, -270, -277, -114
45950, -820, 19, -470, -210, 630, -70, -271, -277, -111
45951, -880, 0, -567, 70, 70, 0, -274, -283, -111
45952, -845, 0, -537, 1890, -4130, -140, -265, -282, -106
45953, -842, 8, -497, -210, 980, -140, -271, -280, -114
45954, -850, -5, -522, -280, 910, -70, -277, -267, -112
45955, -858, -5, -517, -280, 630, 0, -273, -282, -112
45956, -854, 0, -528, -350, 840, -140, -268, -282, -111
45957, -855, 3, -541, 350, -980, -70, -271, -283, -111
45958, -844, -10, -493, 840, -1400, -70, -271, -271, -109
45959, -842, 5, -519, -70, 280, 0, -274, -283, -108
45960, -857, -8, -509, -560, 1750, -70, -277, -280, -112
45961, -856, -8, -498, 770, -1330, -70, -259, -280, -108
45962, -842, 11, -536, 490, -700, -140, -271, -271, -100
45963, -854, -13, -490, -490, 1260, 0, -267, -280, -111
45964, -854, 10, -561, 70, 0, -70, -273, -274, -111
45965, -849, 11, -543, 490, -910, -140, -271, -280, -111
45966, -849, -13, -496, 0, 140, -70, -280, -271, -109
45967, -851, 9, -535, 70, 210, -70, -276, -274, -111
45968, -853, -9, -510, -70, 280, -70, -273, -271, -109
45969, -855, 9, -544, -140, 280, -70, -270, -273, -120
45970, -850, 6, -531, 210, -280, -140, -280, -282, -111
45971, -850, -7, -507, 70, -210, -70, -273, -285, -112
45972, -852, 5, -533, -140, 420, -70, -271, -283, -103
45973, -854, -5, -519, 70, -140, -70, -273, -277, -111
45974, -853, 4, -529, 140, -210, -70, -267, -282, -126
45975, -852, 2, -522, 70, 70, -70, -268, -282, -118
45976, -851, -1, -525, 0, 0, -70, -277, -286, -111
45977, -856, 0, -521, 0, 280, -70, -276, -286, -115
45978, -852, 0, -530, 70, -350, -70, -259, -273, -102
45979, -849, 0, -530, 210, -350, -70, -273, -276, -105
45980, -852, -4, -512, 0, 350, -70, -277, -282, -106
45981, -852, 2, -533, 70, -70, -70, -276, -276, -117
45982, -854, -4, -516, 0, 210, -70, -274, -271, -105
45983, -852, 4, -532, 210, -210, -70, -271, -280, -108
45984, -851, 3, -532, 70, -70, -70, -265, -277, -115
45985, -853, -5, -512, 0, 140, -70, -268, -274, -114
45986, -852, 4, -533, 0, 0, -70, -267, -279, -102
45987, -854, -5, -513, 70, 70, -140, -277, -279, -112
45988, -852, 3, -533, 0, 70, -70, -276, -273, -112
45989, -851, 2, -530, 0, 210, -70, -279, -268, -100
45990, -855, -5, -516, 0, 210, -70, -270, -279, -106
45991, -853, 2, -532, 140, -140, -70, -271, -276, -112
45992, -852, -3, -516, 70, -210, -70, -274, -274, -106
45993, -852, -4, -518, 70, 70, -70, -276, -276, -117
45994, -854, 0, -527, 0, 140, -70, -270, -274, -117
45995, -853, -2, -521, 70, -140, -70, -268, -274, -108
45996, -853, 1, -523, 140, 0, 0, -282, -283, -111
45997, -852, 0, -521, 70, -70, -70, -277, -277, -111
45998, -852, -1, -523, 70, 0, -70, -273, -285, -103
45999, -854, 0, -523, 0, 70, -70, -285, -285, -115
46000, -853, 0, -524, 140, -70, -70, -268, -274, -117
46001, -852, 0, -519, 70, 0, -70, -265, -282, -117
46002, -851, 0, -524, 0, 210, -70, -261, -274, -106
46003, -854, 0, -527, 0, 140, -70, -274, -280, -111
46004, -854, -1, -519, 70, 70, -70, -270, -274, -106
46005, -852, 0, -525, 140, -70, -70, -276, -282, -108
46006, -853, -1, -517, 70, 70, 0, -274, -279, -114
46007, -853, -3, -518, 70, 0, -70, -277, -268, -106
46008, -853, 0, -526, 140, -70, 0, -264, -279, -109
46009, -853, -1, -518, 70, 0, -140, -270, -276, -106
46010, -852, 0, -525, 70, 0, -70, -277, -285, -112
46011, -854, -1, -519, 70, 70, -70, -274, -283, -118
46012, -853, -2, -520, 0, 70, -70, -270, -282, -106
46013, -853, 0, -524, 70, 0, -70, -274, -282, -105
46014, -852, -2, -519, 70, 70, -70, -271, -285, -112
46015, -852, 0, -525, 70, 70, -70, -273, -280, -108
46016, -853, -2, -523, 70, 70, -70, -279, -277, -118
46017, -853, -1, -520, 140, 0, -70, -264, -271, -106
46018, -853, 0, -523, 0, 0, -70, -273, -270, -106
46019, -853, -1, -521, 70, 0, -70, -265, -283, -118
46020, -854, 0, -522, 0, 70, -70, -276, -277, -112
46021, -853, 0, -523, 70, 0, -70, -277, -276, -111
46022, -852, 0, -521, 0, 0, -70, -265, -277, -112
46023, -853, 0, -522, 70, 70, -70, -265, -283, -112
46024, -853, 0, -521, 0, 70, -70, -276, -279, -114
46025, -853, 0, -522, 0, 70, -70, -277, -282, -115
46026, -852, 0, -520, 0, 70, -70, -274, -277, -105
46027, -852, 0, -521, 0, 0, -70, -274, -274, -112
46028, -853, -1, -521, 0, 70, -70, -276, -285, -112
46029, -854, -1, -522, -70, 0, -70, -270, -279, -112
46030, -854, 0, -522, 70, 70, -70, -273, -282, -108
46031, -854, 0, -519, 70, 0, -70, -276, -273, -108
46032, -852, 0, -522, 140, 0, -70, -262, -280, -108
46033, -853, 0, -521, 0, 140, -70, -270, -282, -114
46034, -854, 0, -523, 0, 140, -70, -270, -273, -108
46035, -853, 0, -522, 0, -70, -70, -274, -274, -115
46036, -853, 0, -520, 0, 140, -70, -270, -274, -111
46037, -854, 0, -523, 0, 140, -70, -280, -276, -112
46038, -853, -1, -522, 70, 0, -70, -271, -280, -103
46039, -853, 0, -522, 70, 70, -70, -276, -279, -106
46040, -853, 0, -523, 70, 70, -70, -277, -277, -109
46041, -853, -1, -521, 0, 70, -70, -270, -285, -108
46042, -853, 0, -521, 70, 70, -70, -276, -276, -106
46043, -853, 0, -521, 70, 70, 0, -276, -285, -105
46044, -854, -1, -521, 70, 70, -70, -277, -282, -106
46045, -854, 0, -521, 70, 140, -70, -273, -277, -106
46046, -854, 0, -521, 0, 140, -70, -280, -280, -106
46047, -853, 0, -523, 70, 0, -70, -270, -276, -109
46048, -854, 0, -520, 70, 0, -70, -274, -279, -105
46049, -853, 0, -522, 0, 70, -70, -279, -282, -108
46050, -853, 0, -522, 70, 0, -70, -285, -286, -112
46051, -853, -1, -520, -70, 70, -140, -271, -282, -112
46052, -853, 0, -521, 0, 70, -70, -274, -280, -108
46053, -853, 0, -520, 70, 70, -70, -270, -283, -106
46054, -853, -1, -521, 70, 70, -70, -274, -282, -103
46055, -853, 0, -521, 70, 0, -70, -280, -276, -114
46056, -854, 0, -521, 140, 70, -70, -268, -282, -105
46057, -853, 0, -522, 0, 70, -70, -276, -289, -111
46058, -853, -1, -522, 70, 70, -70, -279, -277, -106
46059, -854, 0, -522, 70, 0, -70, -267, -282, -103
46060, -853, 0, -521, 0, 70, -70, -276, -279, -105
46061, -853, 0, -522, 0, 70, -70, -276, -276, -112
46062, -853, 0, -521, 70, 70, -70, -267, -282, -103
46063, -853, 0, -522, 140, 0, -70, -268, -285, -115
46064, -854, -1, -522, 70, 70, -70, -268, -286, -112
46065, -853, 0, -521, 70, 140, -70, -271, -280, -109
46066, -853, 0, -522, 0, 70, -70, -276, -282, -108
46067, -853, 0, -521, 70, 70, -70, -271, -280, -103
46068, -853, 0, -520, 70, 70, -70, -271, -288, -105
46069, -853, 0, -521, 70, 70, -70, -279, -288, -114
46070, -853, -1, -521, 70, 70, -70, -264, -276, -111
46071, -853, 0, -521, 0, 140, -70, -274, -274, -106
46072, -853, -1, -520, 70, 140, -70, -276, -274, -103
46073, -853, 0, -522, 70, 70, -70, -270, -279, -121
46074, -854, 0, -520, 70, 140, -70, -274, -276, -100
46075, -854, 0, -520, 0, 70, -70, -276, -279, -109
46076, -854, 0, -521, 0, 70, -70, -270, -283, -105
46077, -853, 0, -521, 70, 70, -70, -276, -270, -111
46078, -853, 0, -521, 0, 70, -70, -276, -279, -108
46079, -853, -1, -521, 0, 140, -70, -271, -280, -106
46080, -853, 0, -521, 70, 70, -140, -274, -277, -121
46081, -853, 0, -521, 0, 70, -70, -276, -283, -111
46082, -854, 0, -521, 0, 70, -70, -277, -280, -109
46083, -854, 0, -521, 0, 70, -70, -270, -270, -108
46084, -854, -1, -522, 70, 0, -70, -274, -285, -100
46085, -854, 0, -520, 70, 70, -70, -273, -279, -118
46086, -854, 0, -521, 0, 140, -70, -267, -283, -105
46087, -853, 0, -521, 70, 140, -70, -265, -274, -120
46088, -854, -1, -521, 0, 70, -70, -274, -285, -102
46089, -853, 0, -520, 0, 140, -70, -270, -277, -112
46090, -854, 0, -520, 0, 140, 0, -273, -285, -118
46091, -854, 0, -521, 70, 0, -140, -270, -282, -121
46092, -853, 0, -521, 0, 140, -70, -268, -286, -120
46093, -854, -1, -520, 70, 70, -70, -274, -285, -112
46094, -853, 0, -521, 0, 140, -70, -270, -280, -108
46095, -853, 0, -521, 0, 70, -70, -273, -276, -105
46096, -854, 0, -521, -70, 70, -70, -264, -279, -109
46097, -854, 0, -521, 0, 70, -70, -270, -273, -114
46098, -853, -1, -520, 70, 70, -70, -261, -279, -109
46099, -853, 0, -521, 0, 70, -70, -274, -277, -117
46100, -853, 0, -521, 70, 70, -70, -280, -280, -115
46101, -853, 0, -520, 140, 140, -70, -268, -276, -112
46102, -853, 0, -521, 70, 70, -70, -267, -285, -114
46103, -854, 0, -521, 0, 70, -140, -271, -273, -112
46104, -853, -1, -520, -70, 140, -70, -261, -280, -114
46105, -854, 0, -520, 70, 70, -70, -282, -282, -111
46106, -854, -1, -521, 70, 70, -70, -283, -283, -108
46107, -853, 0, -521, 0, 140, -70, -274, -276, -112
46108, -853, 0, -520, 0, 70, -140, -268, -282, -115
46109, -854, 0, -521, 0, 70, -70, -270, -274, -114
46110, -854, 0, -520, 70, 0, -70, -262, -285, -115
46111, -854, -1, -520, 70, 70, -70, -271, -279, -111
46112, -854, 0, -521, 0, 140, -70, -268, -283, -108
46113, -854, 0, -522, 0, 70, -70, -267, -283, -108
46114, -854, 0, -521, 0, 70, -70, -276, -279, -117
46115, -854, 0, -520, 70, 140, -70, -265, -277, -114
46116, -853, 0, -521, 0, 140, -140, -271, -286, -108
46117, -853, 0, -521, 70, 140, -70, -276, -285, -108
46118, -854, -1, -521, 0, 70, 0, -268, -279, -103
46119, -855, 0, -521, -70, 70, -70, -276, -282, -108
46120, -854, 0, -520, 70, 70, -70, -271, -274, -109
46121, -854, -1, -520, 70, 70, -70, -276, -280, -120
46122, -854, -1, -521, 70, 70, -70, -268, -276, -108
46123, -854, -1, -520, 0, 140, -70, -273, -282, -111
46124, -853, 0, -520, 0, 70, -70, -265, -277, -114
46125, -854, 0, -520, 0, 70, -70, -265, -282, -109
46126, -854, 0, -520, 0, 70, -70, -283, -280, -108
46127, -854, 0, -520, 70, 0, -70, -274, -289, -96
46128, -853, -1, -520, 70, 70, -70, -282, -276, -97
46129, -854, -1, -521, 0, 70, -70, -270, -277, -109
46130, -854, 0, -520, 0, 140, -70, -270, -274, -106
46131, -853, 0, -520, 70, 70, -70, -268, -280, -109
46132, -854, -1, -520, 70, 70, -70, -273, -276, -117
46133, -853, -1, -520, 0, 140, -70, -261, -291, -108
46134, -855, -1, -522, -70, 280, -70, -274, -282, -114
46135, -855, -1, -522, 0, 0, -70, -273, -282, -112
46136, -853, 0, -519, 210, -210, -70, -274, -279, -114
46137, -852, -1, -521, -70, 420, -70, -276, -280, -106
46138, -856, -2, -522, 70, 140, -70, -276, -282, -112
46139, -853, -1, -520, 140, -210, -70, -277, -285, -108
46140, -850, 2, -523, 70, 0, -70, -268, -271, -117
46141, -844, 1, -498, 700, -770, -280, -268, -282, -109
46142, -867, -8, -552, 1400, -2940, -140, -271, -276, -111
46143, -840, 12, -496, 840, -2030, 0, -267, -282, -112
46144, -848, 5, -508, -840, 1890, -70, -271, -277, -108
46145, -855, -10, -527, -140, 350, -140, -271, -274, -114
46146, -859, 0, -521, 140, -350, -70, -271, -276, -111
46147, -855, -1, -514, -70, 420, -70, -271, -282, -112
46148, -857, 4, -520, 140, 70, -70, -271, -277, -111
46149, -848, 0, -526, 210, -350, -70, -274, -280, -121
46150, -851, 1, -513, -210, 490, -140, -271, -274, -103
46151, -846, -1, -524, 420, -350, -210, -267, -283, -108
46152, -834, 4, -495, 770, -350, -350, -273, -280, -109
46153, -848, -2, -506, -1190, 4340, -350, -279, -280, -112
46154, -875, -11, -540, -700, 3220, -280, -273, -279, -118
46155, -868, -6, -545, 630, -140, -210, -261, -277, -112
46156, -859, 5, -535, -560, 1120, -70, -271, -292, -114
46157, -857, 4, -522, 490, -1400, -70, -270, -285, -117
46158, -853, -1, -509, -140, -210, 0, -270, -277, -112
46159, -855, -13, -529, -350, 420, 0, -267, -279, -112
46160, -858, -9, -519, 280, -840, 0, -268, -274, -108
46161, -849, 4, -514, 70, -210, -70, -273, -280, -109
46162, -852, 0, -518, -280, 420, 0, -274, -279, -108
46163, -855, -5, -525, -140, 350, -70, -267, -280, -112
46164, -854, -6, -520, 210, -350, 0, -258, -276, -102
46165, -849, 1, -516, 140, 280, 0, -276, -282, -117
46166, -848, 0, -516, 70, 560, -70, -279, -277, -106
46167, -854, -1, -518, -280, 1260, -140, -274, -285, -112
46168, -858, -2, -527, -70, 840, -140, -270, -270, -109
46169, -857, 0, -527, 210, 210, -70, -268, -280, -109
46170, -856, 3, -524, -70, 280, -70, -267, -285, -105
46171, -856, 2, -524, 0, -70, -70, -279, -288, -109
46172, -855, 0, -523, 70, -280, -70, -273, -279, -106
46173, -854, -2, -521, 0, -210, -70, -262, -279, -121
46174, -855, -1, -523, 70, -490, -70, -273, -282, -123
46175, -850, 0, -516, 70, -420, -70, -279, -283, -111
46176, -850, -1, -518, -140, 0, -70, -273, -277, -111
46177, -853, -4, -519, -70, -70, -70, -265, -283, -112
46178, -852, -4, -518, 0, -70, -70, -268, -273, -105
46179, -852, 0, -519, 70, 210, -70, -273, -273, -112
46180, -853, 0, -520, 70, 280, -140, -262, -271, -105
46181, -854, 0, -521, -70, 490, -70, -270, -280, -111
46182, -854, -1, -524, 0, 350, -70, -267, -283, -117
46183, -854, 0, -520, 140, 70, -70, -265, -279, -111
46184, -851, 0, -517, 0, 420, -140, -264, -276, -118
46185, -853, 0, -518, -70, 700, -140, -276, -288, -106
46186, -857, -2, -523, -140, 700, -140, -274, -280, -112
46187, -859, -1, -528, 0, 140, -140, -270, -277, -109
46188, -854, 1, -523, 280, -490, -70, -264, -285, -106
46189, -848, -1, -516, -70, 280, -140, -270, -283, -109
46190, -850, -4, -517, 0, 420, -140, -276, -283, -106
46191, -852, -4, -517, 0, 840, -210, -268, -279, -112
46192, -853, -2, -520, 0, 910, -210, -262, -291, -111
46193, -856, 2, -523, 0, 980, -210, -274, -283, -115
46194, -859, 3, -528, -210, 770, -210, -271, -283, -117
46195, -861, 2, -529, -70, 0, -140, -268, -279, -109
46196, -861, 1, -524, 0, -490, -140, -267, -280, -121
46197, -862, -1, -529, -280, -700, -70, -267, -279, -108
46198, -859, 1, -519, 70, -2030, 140, -264, -279, -106
46199, -855, -4, -518, -70, -1890, 210, -270, -276, -112
46200, -855, -6, -520, 0, -1890, 210, -273, -282, -115
46201, -857, -5, -521, 70, -2100, 280, -264, -274, -108
46202, -855, -2, -522, 210, -2310, 280, -270, -280, -124
46203, -848, -2, -509, 70, -1610, 280, -274, -277, -117
46204, -850, -4, -514, -140, -770, 210, -274, -286, -114
46205, -852, -4, -518, 0, -840, 210, -265, -285, -112
46206, -853, 0, -515, 140, -700, 140, -274, -285, -117
46207, -859, 1, -524, 70, -840, 210, -276, -279, -111
46208, -855, 1, -518, 140, -1470, 140, -273, -273, -118
46209, -852, 2, -516, 0, -1050, 140, -270, -282, -111
46210, -851, 2, -516, 70, -840, 70, -267, -277, -120
46211, -849, 3, -514, 0, -630, 0, -273, -273, -114
46212, -848, 0, -511, 0, 140, -140, -265, -274, -114
46213, -850, -2, -513, -140, 700, -140, -277, -283, -114
46214, -851, -4, -515, 0, 770, -210, -274, -277, -123
46215, -852, -2, -514, 140, 980, -280, -270, -274, -114
46216, -854, 0, -517, 0, 1470, -210, -265, -288, -108
46217, -855, 0, -518, 140, 1050, -280, -270, -274, -117
46218, -856, -1, -518, 0, 1260, -280, -265, -283, -109
46219, -858, -1, -522, -140, 1330, -210, -274, -277, -114
46220, -859, -1, -523, 0, 770, -210, -274, -277, -118
46221, -854, 0, -516, 0, 700, -210, -270, -277, -117
46222, -855, -1, -519, -70, 770, -210, -271, -277, -118
46223, -855, -1, -518, 70, 560, -140, -265, -286, -124
46224, -853, -1, -516, 140, 770, -140, -270, -286, -115
46225, -854, 0, -517, -70, 1050, -210, -268, -279, -109
46226, -855, 0, -520, 70, 840, -210, -273, -279, -114
46227, -855, 0, -520, 0, 840, -210, -270, -274, -111
46228, -857, 0, -521, 0, 770, -210, -271, -279, -114
46229, -856, 0, -522, 0, 490, -140, -265, -280, -112
46230, -855, 0, -520, 0, 420, -140, -274, -274, -108
46231, -853, -1, -519, 0, 420, -140, -268, -280, -108
46232, -847, -5, -513, 280, 350, -140, -270, -282, -108
46233, -849, -6, -504, 70, 1330, -140, -267, -276, -121
46234, -862, -2, -528, -560, 2520, -140, -277, -279, -105
46235, -848, 6, -513, 770, -910, -140, -270, -286, -109
46236, -850, 0, -507, -490, 1610, -140, -277, -274, -105
46237, -861, -5, -530, -420, 1610, -140, -273, -274, -111
46238, -855, -4, -523, 630, -630, -140, -274, -279, -106
46239, -848, 0, -508, 140, 560, -140, -265, -274, -103
46240, -865, 0, -536, 140, 0, -70, -267, -277, -111
46241, -852, 3, -521, 560, -1260, 0, -271, -279, -106
46242, -849, -1, -510, -210, 140, -140, -279, -279, -106
46243, -858, -6, -522, -420, 980, -70, -273, -280, -111
46244, -856, -6, -512, 420, -840, -70, -265, -276, -106
46245, -854, 1, -515, -490, 1260, -140, -264, -277, -109
46246, -864, 0, -534, -210, 420, -70, -274, -280, -109
46247, -860, 3, -528, 350, -1400, 0, -270, -289, -118
46248, -855, 5, -520, -70, -980, 0, -262, -291, -102
46249, -852, -4, -519, 210, -1820, 0, -277, -279, -112
46250, -842, -6, -505, 280, -1400, 0, -270, -277, -105
46251, -846, -8, -507, -420, 630, -70, -268, -277, -108
46252, -855, -7, -521, -210, 840, -70, -273, -280, -115
46253, -852, 0, -519, 420, -70, -140, -261, -285, -112
46254, -859, 0, -523, -420, 1400, -140, -267, -273, -111
46255, -860, -2, -528, 140, 70, -140, -268, -283, -114
46256, -852, 0, -518, 350, -490, -70, -265, -285, -108
46257, -848, -2, -512, 70, 350, -140, -270, -283, -112
46258, -848, -5, -515, 140, 980, -140, -265, -282, -106
46259, -849, -4, -513, 70, 1610, -140, -271, -288, -105
46260, -855, -2, -519, -140, 2170, -210, -267, -276, -106
46261, -857, 0, -527, 140, 1680, -210, -271, -285, -109
46262, -856, 2, -524, 210, 1120, -210, -264, -283, -111
46263, -859, 1, -527, -70, 840, -140, -274, -282, -111
46264, -857, 0, -522, 140, 70, -140, -262, -288, -114
46265, -855, -1, -521, -70, 420, -140, -265, -285, -112
46266, -859, -2, -524, -140, 350, -140, -279, -282, -115
46267, -856, -2, -526, 140, -350, -70, -267, -280, -108
46268, -854, 0, -520, -70, 140, -70, -268, -276, -111
46269, -855, -1, -523, 0, -210, -70, -265, -276, -108
46270, -853, -1, -521, 0, -280, -70, -279, -277, -105
46271, -853, -3, -521, -70, -140, -70, -276, -285, -114
46272, -846, 0, -509, 0, 560, -140, -268, -283, -114
46273, -852, -5, -519, -280, 1330, -140, -264, -273, -109
46274, -855, -5, -522, 140, 700, -140, -270, -277, -118
46275, -852, -1, -520, 210, 630, -210, -279, -276, -114
46276, -856, 1, -523, -280, 1260, -140, -270, -276, -115
46277, -857, 0, -527, -280, 1050, -70, -273, -283, -114
46278, -861, 0, -531, 0, 70, -70, -279, -276, -117
46279, -860, 0, -519, 140, -700, -70, -268, -282, -106
46280, -855, -2, -531, -70, -490, 0, -276, -280, -105
46281, -853, 0, -516, 280, -1400, 0, -274, -283, -109
46282, -850, -2, -522, -140, -280, 0, -274, -276, -103
46283, -847, -5, -512, 210, -560, -140, -270, -276, -111
46284, -849, -5, -512, -140, 700, -140, -270, -280, -114
46285, -850, -4, -524, 140, 350, -140, -271, -283, -111
46286, -848, -2, -514, 0, 1610, -210, -276, -283, -103
46287, -852, -2, -522, -140, 1960, -210, -273, -279, -108
46288, -853, 0, -520, 210, 1400, -210, -270, -288, -112
46289, -855, 1, -525, -70, 1750, -280, -268, -282, -115
46290, -861, 1, -531, -140, 1540, -280, -267, -277, -105
46291, -847, 5, -515, 210, 280, -280, -273, -274, -103
46292, -855, 1, -522, -630, 1960, -280, -273, -285, -100
46293, -860, -5, -534, -70, 560, -280, -271, -279, -112
46294, -850, -3, -518, 560, -770, -280, -270, -282, -111
46295, -846, -1, -510, -140, 840, -280, -259, -276, -114
46296, -855, -4, -524, 210, 490, -280, -267, -277, -108
46297, -852, -1, -516, 140, 840, -280, -279, -273, -115
46298, -860, -2, -525, -350, 1750, -210, -267, -283, -111
46299, -860, -4, -533, 70, 490, -280, -268, -282, -109
46300, -851, 1, -517, -280, 910, -140, -268, -283, -105
46301, -858, -4, -528, -280, 910, -140, -277, -273, -105
46302, -853, -6, -524, 350, -420, -210, -271, -286, -105
46303, -849, -3, -514, 140, 70, -140, -280, -280, -103
46304, -855, -3, -523, -350, 1190, -70, -279, -283, -106
46305, -854, 1, -522, 210, -350, -70, -271, -285, -111
46306, -855, 0, -524, -70, 140, -70, -271, -282, -108
46307, -857, 0, -528, -70, -70, -70, -283, -270, -111
46308, -854, 0, -524, 70, -840, -70, -276, -279, -108
46309, -849, -1, -516, 140, -70, -70, -268, -280, -109
46310, -853, -4, -521, -70, 140, -70, -271, -282, -111
46311, -855, -3, -522, 0, 70, -70, -268, -274, -105
46312, -854, -1, -523, 0, 0, 0, -267, -277, -115
46313, -854, 0, -523, 0, -140, 0, -265, -280, -105
46314, -850, -2, -521, 140, -420, -70, -273, -280, -99
46315, -847, -3, -514, 140, -210, -70, -268, -280, -111
46316, -852, -4, -517, -210, 770, -70, -270, -273, -109
46317, -857, -2, -528, -70, 560, -70, -270, -276, -108
46318, -856, 0, -525, 210, -210, -70, -270, -274, -103
46319, -855, 0, -525, -140, 280, 0, -279, -282, -114
46320, -857, -1, -527, 0, -350, -70, -271, -280, -117
46321, -854, -1, -523, 210, -840, -70, -273, -279, -115
46322, -853, -1, -520, 0, -490, 0, -277, -277, -120
46323, -854, -3, -522, 70, -840, 0, -280, -276, -109
46324, -854, 0, -519, -70, -560, 0, -274, -279, -114
46325, -857, -2, -525, -140, -420, 0, -268, -280, -108
46326, -859, -2, -525, 0, -980, 70, -273, -279, -106
46327, -863, -1, -526, -140, -1120, 70, -276, -276, -115
46328, -866, 1, -530, 0, -2730, 350, -276, -292, -114
46329, -867, 0, -528, -140, -3290, 420, -267, -280, -109
46330, -869, 0, -531, -210, -4130, 560, -267, -279, -109
46331, -872, 0, -530, -70, -5250, 700, -279, -277, -117
46332, -879, 0, -531, -420, -5880, 910, -277, -280, -106
46333, -910, 0, -545, -560, -9660, 1820, -274, -286, -118
46334, -934, 0, -551, -910, -12460, 2590, -273, -273, -120
46335, -957, -5, -566, -770, -16730, 3710, -279, -279, -105
46336, -997, -17, -550, -1470, -20160, 5390, -268, -268, -117
46337, -1041, -54, -579, -1260, -33810, 9730, -262, -282, -114
46338, -1151, -97, -586, -1960, -41090, 12250, -258, -285, -117
46339, -1235, -115, -655, -1330, -52990, 15050, -262, -283, -124
46340, -1298, -140, -670, 2170, -72310, 17850, -256, -277, -129
46341, -1311, -166, -651, 6720, -95200, 20370, -259, -274, -135
46342, -1186, -146, -564, 15190, -136290, 25830, -256, -273, -147
46343, -1071, -110, -551, 19530, -150010, 28770, -246, -276, -160
46344, -1057, -97, -448, 13720, -139370, 32270, -247, -280, -165
46345, -1140, -177, -561, 8750, -129990, 36050, -238, -270, -175
46346, -1142, -194, -564, 15120, -145600, 39900, -235, -271, -184
46347, -958, -22, -444, 9940, -129080, 46690, -235, -267, -192
46348, -967, 0, -530, 4830, -109830, 49280, -232, -265, -202
46349, -891, 35, -474, 5110, -100450, 51310, -228, -252, -205
46350, -774, 96, -336, -140, -78890, 52920, -238, -244, -208
46351, -761, 134, -294, -15820, -28770, 55230, -228, -258, -211
46352, -856, 105, -267, -17220, -20440, 56140, -216, -244, -219
46353, -905, 66, -208, -21280, -8050, 56910, -216, -246, -208
46354, -977, 26, -245, -23030, -2170, 57680, -222, -234, -213
46355, -1016, 5, -252, -21280, -4410, 58590, -219, -238, -222
46356, -1047, -24, -256, -20930, -2800, 60480, -228, -222, -208
46357, -1064, -24, -300, -18620, -8120, 61250, -214, -223, -213
46358, -1037, 19, -302, -16100, -14630, 61950, -219, -213, -198
46359, -994, 84, -299, -15610, -16730, 62720, -207, -219, -204
46360, -980, 131, -292, -16800, -15610, 63350, -216, -208, -204
46361, -1040, 153, -337, -18760, -16030, 64260, -216, -211, -213
46362, -1087, 157, -334, -18480, -20020, 64610, -210, -208, -214
46363, -1162, 157, -347, -18340, -25480, 65100, -213, -196, -208
46364, -1211, 149, -376, -15120, -38290, 65590, -207, -187, -205
46365, -1174, 181, -279, -9170, -59430, 66780, -205, -187, -213
46366, -1048, 203, -264, -10080, -59570, 67550, -207, -178, -207
46367, -1051, 215, -268, -11340, -59150, 68530, -205, -174, -223
46368, -1056, 220, -292, -10500, -63770, 69440, -195, -166, -216
46369, -1022, 230, -271, -9030, -69650, 70280, -196, -168, -228
46370, -1033, 264, -242, -11550, -66150, 70630, -190, -162, -238
46371, -1067, 260, -280, -9940, -70770, 70420, -195, -159, -228
46372, -1001, 255, -231, -5320, -79800, 70420, -192, -154, -232
46373, -934, 267, -137, -6930, -73500, 70560, -187, -147, -241
46374, -934, 274, -162, -9030, -65520, 70350, -192, -141, -244
46375, -875, 246, -123, -7000, -62860, 70070, -187, -129, -243
46376, -856, 268, -89, -4620, -62790, 69790, -181, -133, -249
46377, -877, 275, -40, -5530, -55720, 69650, -187, -121, -249
46378, -947, 296, -57, -3290, -56070, 69440, -183, -127, -268
46379, -925, 274, -118, 4620, -64890, 68950, -189, -106, -264
46380, -834, 261, -86, 4900, -61670, 68390, -184, -118, -259
46381, -749, 317, -45, 5040, -57190, 67690, -187, -106, -264
46382, -697, 423, -19, 1400, -44310, 67130, -186, -109, -265
46383, -680, 498, -18, -2170, -30520, 66640, -196, -94, -267
46384, -765, 481, -12, -8610, -6650, 65660, -181, -96, -271
46385, -818, 425, 5, -9450, -770, 65100, -178, -84, -270
46386, -893, 392, -16, -11270, 5180, 64470, -184, -82, -276
46387, -905, 360, -66, -8820, 2030, 64190, -178, -69, -261
46388, -835, 377, -4, -5810, -2170, 64050, -189, -61, -258
46389, -824, 453, -4, -11340, 12950, 63910, -192, -66, -261
46390, -839, 487, -39, -10220, 10290, 63910, -181, -61, -258
46391, -804, 511, 0, -9380, 8960, 63700, -183, -54, -258
46392, -791, 497, 17, -12670, 16660, 63350, -189, -54, -256
46393, -836, 478, -27, -13160, 17290, 62580, -184, -42, -247
46394, -841, 489, -18, -13160, 16100, 62370, -184, -46, -244
46395, -850, 483, -32, -13580, 15960, 62370, -187, -40, -247
46396, -843, 494, -38, -12320, 11830, 62300, -178, -33, -238
46397, -818, 521, -15, -11760, 9870, 62230, -189, -25, -232
46398, -821, 540, -54, -13370, 11200, 61950, -190, -31, -226
46399, -807, 544, -53, -12040, 7000, 61740, -192, -19, -234
46400, -785, 553, -40, -12460, 6090, 61530, -187, -25, -225
46401, -777, 555, -37, -12740, 5880, 61460, -193, -18, -225
46402, -790, 557, -48, -13300, 5670, 61320, -184, -6, -223
46403, -771, 569, -36, -11550, 630, 61180, -192, -9, -226
46404, -747, 577, -37, -12250, 2520, 61040, -190, -4, -211
46405, -732, 590, -32, -12250, 3430, 60760, -189, 9, -220
46406, -728, 599, -35, -13160, 5670, 60550, -190, 10, -222
46407, -766, 612, -66, -13860, 5180, 60130, -189, 15, -216
46408, -764, 618, -64, -12180, -350, 60130, -193, 18, -214
46409, -755, 625, -35, -12530, -1050, 60200, -199, 27, -217
46410, -766, 625, -61, -12950, -1680, 60130, -192, 22, -214
46411, -755, 632, -64, -11410, -6300, 60060, -210, 31, -217
46412, -673, 650, -18, -11200, -7070, 59360, -189, 39, -204
46413, -654, 652, -43, -11200, -6720, 59150, -199, 42, -208
46414, -632, 664, -14, -10290, -8400, 58660, -204, 55, -207
46415, -634, 678, -21, -11830, -5040, 58170, -193, 49, -210
46416, -657, 683, -36, -11830, -8260, 57120, -204, 66, -199
46417, -642, 701, -21, -10220, -9660, 56490, -199, 60, -208
46418, -621, 705, -20, -10220, -9380, 56070, -204, 58, -196
46419, -609, 707, -5, -10080, -8750, 55440, -208, 64, -204
46420, -589, 710, -25, -10150, -7910, 54880, -210, 73, -196
46421, -522, 729, 26, -10920, -1960, 53270, -202, 84, -199
46422, -553, 738, -21, -12180, 910, 52220, -210, 85, -192
46423, -559, 760, -37, -10080, -4410, 51240, -214, 81, -204
46424, -528, 776, 12, -9170, -6720, 50120, -205, 91, -199
46425, -521, 768, 13, -10920, -2520, 49140, -204, 90, -193
46426, -513, 772, 6, -9030, -5040, 46830, -213, 96, -198
46427, -496, 783, 21, -9030, -3780, 45710, -210, 91, -195
46428, -489, 780, 16, -9170, -2170, 44590, -213, 96, -198
46429, -478, 784, 16, -8680, -1960, 43470, -205, 108, -187
46430, -457, 804, 24, -8890, 1820, 41020, -214, 108, -193
46431, -434, 855, 17, -9450, 5740, 39760, -213, 114, -198
46432, -396, 845, 96, -8680, 8610, 38150, -217, 114, -184
46433, -466, 785, 89, -15400, 23800, 36890, -213, 114, -192
46434, -520, 768, -76, -11690, 14210, 35840, -223, 121, -177
46435, -528, 810, 4, -9870, 4130, 34090, -213, 127, -193
46436, -565, 806, -23, -8400, -1680, 33040, -217, 124, -181
46437, -476, 833, 10, -1960, -14980, 31990, -223, 126, -189
46438, -417, 873, 149, -4690, -7280, 30660, -219, 127, -192
46439, -451, 841, 21, -9520, 4830, 29890, -223, 123, -183
46440, -519, 825, 18, -6580, -2800, 29050, -232, 132, -175
46441, -589, 826, 22, -7910, -1960, 28840, -225, 132, -190
46442, -650, 806, -47, -7420, -6230, 28980, -234, 135, -175
46443, -668, 810, -12, -4200, -16380, 29190, -225, 138, -178
46444, -638, 810, -12, -3360, -21560, 30450, -226, 138, -183
46445, -606, 806, -18, -2660, -23240, 31290, -228, 135, -190
46446, -570, 820, 25, -1470, -25060, 31920, -222, 150, -190
46447, -544, 825, 20, -3430, -19740, 32620, -231, 142, -190
46448, -546, 832, 4, -3920, -17290, 33320, -229, 153, -184
46449, -548, 848, 44, -6930, -8680, 34790, -229, 157, -186
46450, -588, 834, -36, -7490, -8050, 35700, -244, 169, -196
46451, -585, 840, 10, -5180, -13020, 36680, -244, 160, -195
46452, -566, 832, 35, -6860, -9100, 37520, -234, 160, -183
46453, -593, 815, 7, -8400, -5390, 38500, -249, 160, -193
46454, -555, 838, 40, -6440, -9660, 40390, -241, 154, -198
46455, -545, 846, 15, -7490, -7630, 41300, -235, 160, -195
46456, -537, 849, 15, -7210, -8610, 42070, -244, 166, -192
46457, -501, 856, 27, -6790, -9870, 42770, -237, 171, -186
46458, -478, 858, 52, -8400, -4620, 43820, -250, 172, -184
46459, -435, 859, 61, -8190, -3710, 44170, -237, 174, -180
46460, -404, 863, 66, -9100, 350, 44450, -241, 186, -181
46461, -376, 873, 84, -9310, 3780, 44380, -246, 184, -189
46462, -365, 884, 87, -11130, 10150, 44450, -238, 183, -190
46463, -370, 900, 65, -12040, 14000, 44030, -247, 178, -186
46464, -367, 909, 91, -12530, 14700, 43610, -256, 186, -175
46465, -380, 900, 56, -13720, 16030, 43050, -259, 189, -171
46466, -385, 896, 59, -12040, 10500, 42350, -258, 198, -171
46467, -358, 892, 73, -10850, 6160, 41510, -261, 205, -175
46468, -350, 894, 68, -10570, 1820, 39760, -268, 205, -172
46469, -330, 903, 52, -7280, -7350, 38710, -250, 207, -171
46470, -283, 927, 102, -6020, -10780, 37590, -261, 208, -165
46471, -268, 934, 96, -7140, -8750, 36260, -261, 207, -184
46472, -268, 947, 83, -4690, -14770, 33740, -265, 216, -171
46473, -226, 950, 96, -5530, -13230, 32340, -261, 219, -187
46474, -234, 941, 72, -5530, -13440, 30940, -262, 217, -165
46475, -226, 940, 74, -3920, -16590, 29470, -262, 220, -180
46476, -205, 947, 91, -3290, -17220, 28000, -273, 213, -184
46477, -210, 946, 74, -3080, -15890, 25130, -277, 226, -186
46478, -202, 952, 74, -1680, -18410, 23730, -264, 226, -171
46479, -180, 962, 89, -980, -18970, 22260, -270, 225, -180
46480, -165, 962, 96, -1260, -16870, 20790, -267, 232, -183
46481, -169, 960, 93, -1470, -14770, 19320, -276, 225, -184
46482, -182, 970, 85, -980, -13090, 16940, -273, 226, -181
46483, -169, 974, 93, -910, -11410, 15750, -280, 223, -177
46484, -142, 974, 102, -770, -8680, 14280, -267, 225, -174
46485, -114, 982, 131, -1050, -4270, 12810, -282, 226, -178
46486, -172, 967, 71, -3640, 5530, 10500, -274, 234, -175
46487, -156, 978, 114, -910, 1540, 9170, -276, 237, -186
46488, -174, 978, 150, -4130, 10010, 7910, -271, 238, -181
46489, -241, 955, 68, -4830, 11760, 6720, -282, 234, -183
46490, -231, 959, 75, -350, 1750, 5670, -277, 229, -180
46491, -215, 960, 122, -3570, 9940, 3640, -277, 231, -177
46492, -249, 946, 70, -1610, 5670, 2800, -277, 232, -168
46493, -209, 967, 120, 1260, -350, 1960, -282, 231, -177
46494, -210, 972, 154, -2100, 7560, 1050, -285, 234, -171
46495, -267, 945, 73, -2870, 9380, 350, -273, 240, -174
46496, -233, 965, 155, 210, 2380, -770, -283, 223, -186
46497, -268, 941, 104, -2450, 8890, -1120, -282, 237, -180
46498, -306, 936, 87, -280, 4620, -1260, -280, 237, -181
46499, -317, 946, 114, -70, 4130, -1260, -285, 235, -178
46500, -390, 944, 55, -280, 1820, -840, -279, 231, -177
46501, -374, 948, 80, 1330, -3640, -630, -279, 241, -171
46502, -353, 949, 89, 350, -2520, -350, -279, 231, -174
46503, -345, 947, 75, 560, -3710, -210, -283, 235, -172
46504, -324, 943, 71, 980, -5390, -70, -271, 229, -169
46505, -290, 941, 85, 490, -4760, 70, -279, 231, -171
46506, -301, 941, 75, 770, -5180, 70, -276, 234, -178
46507, -305, 944, 72, 1050, -5880, 70, -280, 232, -174
46508, -305, 950, 79, 1120, -5810, 70, -273, 238, -180
46509, -310, 951, 74, 630, -4410, 140, -277, 238, -177
46510, -303, 951, 51, 1330, -6300, 280, -283, 231, -178
46511, -249, 955, 104, 2520, -6860, 210, -277, 235, -180
46512, -241, 955, 104, -1260, 3290, 210, -274, 229, -177
46513, -273, 941, 77, -980, 4760, 70, -285, 228, -178
46514, -268, 969, 128, -1120, 7840, -70, -273, 232, -187
46515, -293, 943, 49, -2940, 11900, -70, -273, 225, -181
46516, -299, 945, 87, -280, 6370, -280, -276, 234, -166
46517, -266, 948, 95, -700, 7840, -350, -283, 234, -166
46518, -287, 949, 117, -2170, 11340, -560, -277, 235, -169
46519, -317, 961, 110, -490, 7140, -770, -271, 234, -174
46520, -322, 965, 75, -1610, 8400, -910, -286, 234, -165
46521, -352, 966, 77, -1050, 5040, -1190, -273, 237, -169
46522, -325, 949, 53, 770, -1190, -1540, -282, 241, -171
46523, -297, 951, 106, 1330, -4060, -1890, -276, 226, -169
46524, -283, 947, 85, 1330, -5810, -2660, -258, 228, -174
46525, -275, 951, 73, 2240, -8330, -3080, -280, 229, -174
46526, -290, 957, 84, 1540, -7630, -3430, -283, 232, -166
46527, -304, 952, 53, 2240, -9940, -3850, -267, 228, -183
46528, -308, 952, 59, 3290, -14210, -4340, -276, 234, -175
46529, -312, 946, 61, 3220, -14700, -4480, -267, 235, -177
46530, -307, 944, 57, 3990, -16520, -4620, -273, 237, -177
46531, -305, 950, 70, 3780, -15890, -4620, -274, 228, -180
46532, -303, 952, 60, 3780, -15400, -4620, -271, 225, -181
46533, -273, 950, 77, 3850, -13790, -4760, -283, 226, -177
46534, -247, 948, 74, 3150, -10710, -4830, -277, 226, -178
46535, -237, 953, 100, 2450, -6930, -4970, -277, 235, -183
46536, -228, 950, 86, 1330, -1470, -5040, -280, 235, -180
46537, -241, 955, 113, 630, 8610, -5250, -277, 228, -189
46538, -324, 949, 83, -1120, 10080, -5180, -271, 234, -187
46539, -335, 951, 66, -490, 9520, -4760, -268, 229, -186
46540, -352, 961, 101, -1540, 11900, -4480, -279, 223, -178
46541, -394, 940, 54, -3360, 15050, -3990, -276, 225, -186
46542, -406, 919, 83, -280, 5180, -2870, -273, 228, -177
46543, -444, 932, 92, -1400, 6160, -2170, -271, 225, -183
46544, -525, 878, 131, -980, 5880, 0, -273, 237, -169
46545, -505, 795, 9, 1120, -910, 1330, -273, 231, -177
46546, -433, 936, 52, 6300, -16450, 840, -276, 234, -172
46547, -239, 1000, 147, 1400, -10570, 1120, -280, 220, -184
46548, -215, 903, 139, -1260, -2870, 1750, -276, 231, -180
46549, -263, 933, 156, -350, -560, 1890, -276, 226, -184
46550, -308, 973, 74, -2100, 6720, 1890, -273, 229, -177
46551, -351, 939, 77, -770, 3990, 1120, -273, 231, -172
46552, -324, 944, 72, 1680, -4410, 910, -280, 231, -174
46553, -283, 998, 63, 910, -4970, 1120, -273, 222, -184
46554, -286, 985, 110, -420, -1960, 1120, -277, 231, -177
46555, -298, 921, 76, -1610, 2450, 1050, -271, 235, -178
46556, -320, 959, 54, -700, 3360, 630, -271, 232, -178
46557, -326, 953, 67, -1050, 3640, 770, -274, 229, -189
46558, -325, 917, 47, -700, 1680, 1120, -276, 223, -186
46559, -328, 937, 65, 140, -980, 1400, -280, 234, -190
46560, -326, 960, 58, -490, 350, 1540, -274, 235, -184
46561, -339, 927, 47, -1610, 4970, 1820, -276, 231, -184
46562, -342, 942, 61, -1330, 4690, 2240, -276, 229, -172
46563, -330, 957, 45, -1400, 4480, 2730, -286, 226, -183
46564, -328, 956, 61, -2170, 6300, 3290, -279, 237, -171
46565, -332, 934, 70, -3640, 11200, 4060, -279, 235, -175
46566, -339, 934, 63, -1400, 6930, 4060, -277, 231, -169
46567, -325, 956, 75, -3080, 10430, 4550, -276, 234, -187
46568, -326, 951, 75, -2450, 8820, 4690, -279, 229, -168
46569, -343, 945, 68, -3640, 10220, 5110, -282, 234, -180
46570, -346, 945, 71, -2730, 6160, 5250, -277, 231, -184
46571, -330, 934, 83, -1400, 2520, 5110, -286, 234, -174
46572, -312, 932, 88, -1750, 2870, 5250, -277, 237, -171
46573, -296, 947, 98, -700, 560, 5110, -280, 231, -166
46574, -292, 956, 92, -1750, 2590, 5040, -273, 234, -177
46575, -280, 949, 95, -1470, 2030, 4620, -279, 231, -174
46576, -275, 954, 107, -980, 1190, 4270, -279, 228, -183
46577, -274, 952, 95, -1820, 3150, 4060, -280, 232, -178
46578, -278, 952, 103, -1190, 2100, 3710, -279, 232, -169
46579, -279, 947, 102, -1330, 2730, 3430, -276, 238, -168
46580, -289, 951, 92, -1750, 3850, 3360, -274, 232, -171
46581, -299, 952, 95, -1610, 3920, 3290, -276, 229, -178
46582, -303, 946, 83, -2100, 5460, 3290, -274, 237, -181
46583, -309, 950, 85, -1960, 5600, 3500, -280, 238, -171
46584, -321, 948, 81, -2730, 7980, 4130, -276, 235, -184
46585, -330, 938, 71, -3010, 8750, 4480, -280, 238, -168
46586, -343, 941, 70, -2800, 8190, 4760, -285, 238, -168
46587, -342, 938, 69, -2590, 7630, 5040, -277, 234, -174
46588, -341, 942, 71, -2450, 6860, 5320, -282, 231, -175
46589, -345, 944, 73, -1890, 2940, 5810, -280, 232, -169
46590, -343, 944, 72, -1540, 630, 5950, -277, 232, -172
46591, -332, 943, 73, -910, -1890, 6020, -280, 240, -163
46592, -308, 944, 85, -140, -4340, 6090, -282, 234, -178
46593, -271, 948, 98, -420, -3710, 5950, -279, 232, -177
46594, -283, 951, 101, -910, -2380, 5950, -279, 244, -175
46595, -267, 950, 100, 490, -5390, 5530, -277, 237, -169
46596, -266, 956, 106, -1050, -2310, 5390, -286, 237, -166
46597, -253, 959, 99, 770, -6020, 4830, -282, 232, -163
46598, -239, 957, 106, 770, -5880, 3990, -285, 238, -168
46599, -238, 960, 110, -560, -2800, 3710, -280, 240, -180
46600, -229, 963, 109, 980, -5600, 3010, -283, 235, -175
46601, -224, 963, 109, -350, -2240, 2590, -285, 246, -165
46602, -218, 966, 108, 1050, -4270, 1750, -283, 241, -178
46603, -218, 972, 104, 420, -1540, 560, -283, 241, -168
46604, -224, 967, 93, -700, 1400, 140, -273, 237, -168
46605, -237, 966, 104, 280, -560, -490, -282, 240, -169
46606, -250, 958, 80, -350, 770, -980, -285, 237, -177
46607, -228, 965, 84, 1400, -3150, -2450, -286, 238, -166
46608, -218, 972, 86, 1540, -3290, -3150, -285, 238, -172
46609, -209, 970, 73, 1050, -1680, -3500, -279, 243, -172
46610, -210, 973, 91, 1050, -980, -3990, -286, 237, -178
46611, -222, 965, 77, -70, 3080, -4340, -288, 241, -175
46612, -258, 955, 68, 280, 4270, -5250, -279, 226, -180
46613, -268, 958, 78, 630, 3640, -5600, -273, 234, -184
46614, -280, 955, 67, 630, 3150, -5810, -286, 238, -178
46615, -291, 956, 72, 1120, 1190, -6090, -277, 243, -171
46616, -285, 957, 76, 1750, -1050, -6370, -277, 237, -175
46617, -247, 955, 97, 2800, -3850, -7490, -282, 240, -174
46618, -231, 954, 100, 2660, -3920, -8190, -279, 240, -166
46619, -211, 957, 104, 3990, -6930, -9240, -280, 231, -181
46620, -185, 967, 116, 4060, -6440, -10080, -277, 243, -169
46621, -173, 979, 115, 2730, -840, -12040, -271, 237, -178
46622, -181, 977, 114, 2870, 490, -13090, -273, 225, -162
46623, -192, 971, 110, 1960, 3780, -14070, -283, 238, -175
46624, -213, 962, 106, 2030, 4550, -15120, -286, 229, -174
46625, -231, 951, 91, 2240, 4690, -15960, -273, 223, -180
46626, -251, 946, 89, 3220, 3010, -17570, -268, 229, -175
46627, -256, 951, 86, 4130, 1260, -18410, -273, 228, -174
46628, -244, 956, 85, 4410, 770, -19250, -268, 229, -174
46629, -236, 960, 96, 4550, 840, -19950, -268, 229, -184
46630, -236, 956, 88, 4130, 2030, -20720, -280, 229, -171
46631, -246, 949, 88, 4270, 3080, -22330, -276, 232, -177
46632, -254, 947, 90, 4410, 3290, -23240, -274, 222, -174
46633, -257, 944, 84, 4620, 3780, -24010, -270, 222, -180
46634, -259, 945, 90, 4900, 3360, -24780, -265, 223, -172
46635, -273, 940, 81, 5040, 3850, -26320, -271, 216, -171
46636, -280, 939, 76, 5320, 3710, -27090, -273, 219, -175
46637, -287, 938, 67, 5250, 3990, -27860, -262, 219, -178
46638, -295, 937, 61, 5460, 3640, -28560, -264, 213, -175
46639, -304, 932, 56, 5250, 4130, -29120, -271, 202, -175
46640, -370, 909, 49, 4130, 6930, -29610, -273, 214, -180
46641, -613, 921, -19, -3080, 21490, -26530, -253, 210, -177
46642, -1056, 904, -268, -15260, 44310, -17500, -265, 208, -174
46643, -1337, 824, -461, -15820, 43750, -5740, -264, 204, -175
46644, -1172, 739, -270, -3850, 29190, 4900, -264, 214, -171
46645, -665, 649, 144, -10290, 56910, 5950, -262, 202, -174
46646, -664, 765, -113, -2660, 37660, 7700, -259, 205, -160
46647, -556, 976, 15, 6580, 4900, 9940, -261, 216, -171
46648, -543, 1031, 38, -1050, 3080, 11970, -265, 210, -168
46649, -516, 1012, -27, 6930, -45710, 12040, -264, 205, -181
46650, -318, 1031, 189, 4130, -42980, 10570, -262, 202, -169
46651, -245, 914, 173, -2450, -24780, 9450, -262, 204, -166
46652, -208, 803, 174, 1960, -27720, 8960, -273, 213, -171
46653, -139, 810, 246, 4830, -26390, 9030, -265, 219, -178
46654, -284, 929, 90, 770, -4410, 8050, -255, 208, -180
46655, -322, 987, 110, 2170, -5460, 7140, -268, 217, -169
46656, -316, 1043, 114, -1540, 1470, 6650, -258, 210, -168
46657, -336, 1057, 105, -4270, 4830, 6930, -265, 216, -183
46658, -346, 992, 112, -6790, 8120, 8890, -264, 211, -166
46659, -454, 795, 114, -7210, 12250, 9660, -262, 207, -180
46660, -511, 791, 95, -4410, 10290, 10290, -264, 219, -168
46661, -522, 841, 75, -2870, 9520, 11130, -274, 210, -166
46662, -524, 902, 68, -2520, 7560, 12250, -264, 217, -160
46663, -481, 986, 58, -1610, -6090, 14910, -262, 216, -189
46664, -431, 977, 64, -1960, -10710, 15540, -265, 225, -169
46665, -378, 930, 92, -1890, -13370, 15610, -268, 222, -169
46666, -315, 887, 106, -1330, -14070, 15190, -273, 217, -172
46667, -264, 884, 133, -700, -12810, 14630, -264, 226, -172
46668, -237, 940, 124, -770, -7070, 13790, -267, 222, -181
46669, -248, 969, 102, -1190, -4830, 13370, -268, 226, -174
46670, -263, 992, 97, -1960, -2730, 12810, -265, 219, -166
46671, -275, 991, 80, -2940, -910, 12180, -277, 225, -181
46672, -284, 970, 85, -3640, 560, 11200, -271, 220, -175
46673, -297, 917, 88, -3290, 0, 11060, -271, 222, -175
46674, -307, 912, 84, -2660, -420, 10920, -271, 222, -171
46675, -324, 924, 81, -2240, -280, 10780, -279, 229, -166
46676, -337, 935, 66, -1750, -700, 10640, -271, 229, -174
46677, -321, 965, 59, -1120, -3430, 10430, -270, 231, -172
46678, -303, 971, 65, -1470, -4060, 10500, -268, 231, -172
46679, -290, 961, 68, -1820, -4340, 10430, -279, 238, -180
46680, -286, 950, 73, -2100, -3850, 10150, -274, 226, -180
46681, -278, 940, 75, -1750, -3780, 9730, -280, 235, -175
46682, -255, 945, 84, -1260, -2520, 8890, -277, 232, -172
46683, -254, 952, 80, -1330, -1750, 8470, -270, 237, -171
46684, -258, 960, 73, -1120, -1890, 8050, -279, 228, -168
46685, -262, 967, 69, -1190, -1820, 7490, -277, 229, -165
46686, -259, 968, 70, -1330, -1890, 6510, -279, 228, -177
46687, -252, 960, 75, -1330, -1680, 6020, -276, 232, -180
46688, -254, 954, 77, -1470, -840, 5600, -282, 237, -181
46689, -261, 948, 76, -1330, -350, 5180, -285, 232, -175
46690, -271, 948, 75, -1120, 140, 4900, -276, 244, -168
46691, -298, 953, 66, -1190, 910, 4620, -273, 232, -172
46692, -312, 954, 60, -1260, 490, 4620, -273, 238, -172
46693, -324, 954, 58, -1400, 420, 4900, -288, 229, -163
46694, -334, 949, 59, -1470, 210, 5180, -283, 237, -178
46695, -343, 944, 60, -1610, 210, 5670, -282, 237, -169
46696, -363, 935, 57, -1890, 700, 6860, -285, 232, -171
46697, -368, 935, 56, -1680, 140, 7420, -282, 238, -181
46698, -365, 938, 57, -1610, -700, 8120, -273, 240, -171
46699, -357, 943, 61, -1610, -1470, 8820, -280, 240, -177
46700, -348, 868, -210, -630, -5390, 9800, -286, 235, -166
46701, -656, 762, -497, 81060, -192640, 12460, -285, 235, -183
46702, 31, 1120, 607, 38010, -102200, 20370, -283, 234, -180
46703, -363, 934, -4, 25480, -72450, 16380, -286, 249, -180
46704, -292, 939, 61, 31430, -88060, 17290, -277, 241, -186
46705, -203, 983, 181, 13230, -42210, 20230, -294, 249, -184
46706, -220, 981, 174, 5390, -21630, 20580, -301, 244, -187
46707, -263, 970, 85, -840, -4130, 20020, -288, 250, -186
46708, -287, 963, 71, -1120, -3710, 19040, -295, 247, -193
46709, -253, 970, 90, -980, -4410, 18200, -291, 247, -183
46710, -224, 967, 114, -1820, -700, 15610, -289, 253, -186
46711, -238, 964, 94, -2100, 0, 14980, -289, 253, -180
46712, -178, 983, 162, -3920, 5880, 14770, -300, 261, -181
46713, -111, 1014, 273, -14350, 35070, 14350, -300, 258, -186
46714, -279, 951, 30, -21630, 52570, 12950, -301, 255, -184
46715, -240, 964, 78, -19250, 45850, 12670, -289, 246, -187
46716, -216, 974, 122, -18900, 44380, 12320, -298, 259, -174
46717, -215, 970, 112, -21770, 51520, 11970, -292, 253, -178
46718, -320, 929, -35, -17150, 38360, 11690, -297, 252, -171
46719, -196, 974, 130, -490, -5390, 11340, -294, 250, -175
46720, -264, 946, 20, 560, -7910, 11130, -301, 255, -178
46721, -248, 956, 50, 6720, -24010, 10990, -300, 259, -177
46722, -257, 952, 31, 11200, -35770, 10780, -301, 259, -181
46723, -316, 929, -57, 19600, -58170, 10780, -304, 253, -178
46724, -119, 1001, 221, 22470, -65870, 11830, -301, 261, -175
46725, -101, 1014, 243, 8960, -29330, 11970, -303, 265, -175
46726, -241, 962, 48, 2310, -11340, 11130, -298, 264, -180
46727, -167, 987, 143, 2730, -12460, 10920, -301, 267, -184
46728, -153, 995, 171, -3850, 6230, 10500, -310, 267, -183
46729, -167, 986, 144, -9660, 22330, 10220, -295, 262, -184
46730, -236, 965, 46, -11830, 28000, 10080, -300, 258, -177
46731, -252, 962, 23, -9380, 21140, 10010, -301, 256, -184
46732, -206, 971, 89, -5320, 9940, 10290, -306, 268, -174
46733, -190, 978, 106, -11690, 26740, 10290, -306, 273, -177
46734, -181, 984, 113, -13440, 31500, 10570, -309, 276, -180
46735, -172, 986, 117, -16450, 39620, 10920, -303, 262, -175
46736, -189, 976, 94, -17920, 43260, 11130, -309, 267, -171
46737, -200, 965, 57, -17920, 42490, 11480, -300, 265, -180
46738, -237, 968, 43, -11970, 25830, 13790, -301, 277, -168
46739, -83, 941, 51, -6930, 12180, 17920, -307, 268, -160
46740, -51, 954, 95, -5600, 8330, 31220, -312, 277, -169
46741, -386, 1051, 154, -6720, 11480, 33530, -313, 267, -165
46742, -156, 978, 93, -3850, 5250, 7630, -316, 283, -163
46743, -153, 979, 90, -1890, 490, 7070, -316, 277, -168
46744, -140, 982, 111, -1190, -770, 6510, -321, 280, -159
46745, -137, 984, 110, -1260, -770, 6090, -303, 271, -160
46746, -132, 983, 117, -1470, 140, 5460, -312, 273, -162
46747, -135, 983, 107, -210, -2520, 4340, -301, 273, -168
46748, -127, 986, 112, 420, -3710, 3850, -315, 274, -171
46749, -126, 985, 121, 70, -2590, 3220, -312, 277, -171
46750, -138, 982, 103, 280, -2730, 2660, -318, 276, -159
46751, -164, 975, 74, 3920, -11900, 1330, -315, 277, -166
46752, -131, 987, 128, 6370, -17850, 910, -303, 271, -171
46753, -133, 986, 119, 4200, -12390, 630, -315, 264, -180
46754, -117, 992, 151, 2030, -6160, 420, -316, 280, -168
46755, -135, 987, 122, -630, 1190, 280, -310, 273, -174
46756, -167, 978, 92, -2870, 8190, 0, -312, 268, -163
46757, -207, 966, 50, 140, 140, -70, -316, 267, -169
46758, -144, 991, 148, 1050, -2310, -70, -313, 277, -166
46759, -189, 975, 98, -2450, 6790, -140, -307, 264, -172
46760, -239, 959, 25, 1680, -4410, 0, -306, 285, -169
46761, -192, 975, 103, -2310, 6020, 210, -315, 268, -175
46762, -214, 967, 73, -980, 2450, 490, -313, 273, -166
46763, -198, 972, 97, 350, -770, 630, -313, 279, -163
46764, -193, 977, 112, -280, 560, 910, -312, 271, -169
46765, -201, 975, 104, -1050, 2170, 1400, -316, 273, -169
46766, -213, 972, 86, 1680, -4970, 1750, -313, 268, -183
46767, -203, 976, 101, 1190, -4060, 1960, -306, 267, -175
46768, -202, 975, 95, 910, -3780, 2240, -315, 276, -162
46769, -201, 974, 89, 1120, -4690, 2450, -318, 274, -169
46770, -195, 976, 90, 350, -2730, 2800, -313, 276, -165
46771, -191, 976, 95, 770, -3850, 3010, -315, 277, -172
46772, -180, 980, 109, 140, -2030, 3150, -315, 274, -163
46773, -186, 976, 99, -560, -210, 3220, -316, 273, -174
46774, -187, 976, 94, -630, -280, 3360, -315, 276, -159
46775, -177, 978, 101, -280, -1260, 3500, -322, 267, -174
46776, -178, 978, 99, -700, -140, 3570, -318, 282, -165
46777, -173, 979, 103, -420, -1050, 3640, -322, 273, -162
46778, -170, 980, 103, -1050, 700, 3640, -316, 273, -162
46779, -179, 976, 87, 560, -3710, 3640, -318, 283, -171
46780, -170, 978, 99, 770, -4270, 3570, -316, 276, -168
46781, -181, 971, 81, 2170, -7980, 3500, -312, 280, -163
46782, -147, 984, 123, 2660, -9100, 3500, -312, 280, -169
46783, -148, 984, 122, 350, -2940, 3360, -306, 286, -174
46784, -158, 981, 102, 1260, -5040, 3220, -324, 276, -178
46785, -156, 980, 102, 1610, -5880, 3150, -319, 280, -174
46786, -150, 984, 113, 1400, -5460, 2940, -318, 268, -168
46787, -163, 978, 92, 1540, -5600, 2870, -321, 286, -159
46788, -167, 980, 93, 2170, -7420, 2730, -318, 274, -160
46789, -152, 985, 102, 3640, -11830, 2590, -307, 280, -174
46790, -163, 973, 80, 4270, -13860, 2730, -316, 280, -168
46791, -150, 983, 97, 5390, -16170, 2800, -316, 277, -172
46792, -151, 973, 96, 5460, -16590, 3430, -318, 282, -159
46793, -132, 985, 119, 3290, -9660, 4060, -316, 288, -184
46794, -130, 987, 115, 1610, -4690, 3150, -316, 276, -177
46795, -140, 987, 108, 1190, -3640, 2590, -312, 276, -171
46796, -149, 982, 99, 1120, -3290, 2170, -318, 271, -174
46797, -163, 982, 88, 1330, -3850, 1890, -324, 277, -166
46798, -157, 977, 88, 4060, -11550, 2030, -321, 277, -175
46799, -142, 980, 99, 4830, -13720, 2310, -321, 282, -171
46800, -137, 982, 111, 4550, -13160, 2730, -318, 279, -172
46801, -139, 984, 108, 3850, -10920, 3010, -319, 286, -172
46802, -142, 988, 115, 2730, -7980, 3220, -318, 273, -175
46803, -142, 986, 115, 70, -490, 3360, -319, 286, -171
46804, -136, 987, 114, -1260, 3290, 3150, -324, 276, -174
